SS_delay,SS_duration,SS_stimulus,SS_trial_type,att_check_percent,block_duration,correct,correct_response,original_correcttrial,current_block,current_trial,exp_id,go_acc,key_press,possible_responses,rt,stim,stim_duration,stop_acc,stop_signal_condition,time_elapsed,timing_post_trial,trial_id,worker_id,correct_trial
250.0,500.0,<img class = center src='/static/experiments/stop_signal_single_task_network/images/stopSignal.png'></img>,go,,2000.0,,90.0,1.0,0.0,1.0,stop_signal_single_task_network,1.0,90.0,"[90, 77]",622,circle,1000.0,,go,98287,0.0,test_trial,A3QAHF4UUBM7ZO,1
250.0,500.0,<img class = center src='/static/experiments/stop_signal_single_task_network/images/stopSignal.png'></img>,go,,2000.0,,77.0,1.0,0.0,2.0,stop_signal_single_task_network,1.0,77.0,"[90, 77]",519,square,1000.0,,go,100791,0.0,test_trial,A3QAHF4UUBM7ZO,1
250.0,500.0,<img class = center src='/static/experiments/stop_signal_single_task_network/images/stopSignal.png'></img>,go,,2000.0,,77.0,1.0,0.0,3.0,stop_signal_single_task_network,1.0,77.0,"[90, 77]",491,square,1000.0,,go,103296,0.0,test_trial,A3QAHF4UUBM7ZO,1
250.0,500.0,<img class = center src='/static/experiments/stop_signal_single_task_network/images/stopSignal.png'></img>,go,,2000.0,,77.0,1.0,0.0,4.0,stop_signal_single_task_network,1.0,77.0,"[90, 77]",389,square,1000.0,,go,105801,0.0,test_trial,A3QAHF4UUBM7ZO,1
250.0,500.0,<img class = center src='/static/experiments/stop_signal_single_task_network/images/stopSignal.png'></img>,go,,2000.0,,77.0,1.0,0.0,5.0,stop_signal_single_task_network,1.0,77.0,"[90, 77]",314,square,1000.0,,go,108307,0.0,test_trial,A3QAHF4UUBM7ZO,1
250.0,500.0,<img class = center src='/static/experiments/stop_signal_single_task_network/images/stopSignal.png'></img>,go,,2000.0,,90.0,0.0,0.0,6.0,stop_signal_single_task_network,0.0,77.0,"[90, 77]",405,circle,1000.0,,go,110812,0.0,test_trial,A3QAHF4UUBM7ZO,0
250.0,500.0,<img class = center src='/static/experiments/stop_signal_single_task_network/images/stopSignal.png'></img>,stop,,2000.0,,-1.0,0.0,0.0,7.0,stop_signal_single_task_network,,90.0,"[90, 77]",460,circle,1000.0,0.0,stop,113315,0.0,test_trial,A3QAHF4UUBM7ZO,0
200.0,500.0,<img class = center src='/static/experiments/stop_signal_single_task_network/images/stopSignal.png'></img>,stop,,2000.0,,-1.0,1.0,0.0,8.0,stop_signal_single_task_network,,-1.0,"[90, 77]",-1,square,1000.0,1.0,stop,115819,0.0,test_trial,A3QAHF4UUBM7ZO,1
250.0,500.0,<img class = center src='/static/experiments/stop_signal_single_task_network/images/stopSignal.png'></img>,go,,2000.0,,90.0,1.0,0.0,9.0,stop_signal_single_task_network,1.0,90.0,"[90, 77]",462,circle,1000.0,,go,118324,0.0,test_trial,A3QAHF4UUBM7ZO,1
250.0,500.0,<img class = center src='/static/experiments/stop_signal_single_task_network/images/stopSignal.png'></img>,go,,2000.0,,77.0,1.0,0.0,10.0,stop_signal_single_task_network,1.0,77.0,"[90, 77]",583,square,1000.0,,go,120829,0.0,test_trial,A3QAHF4UUBM7ZO,1
250.0,500.0,<img class = center src='/static/experiments/stop_signal_single_task_network/images/stopSignal.png'></img>,go,,2000.0,,77.0,1.0,0.0,11.0,stop_signal_single_task_network,1.0,77.0,"[90, 77]",786,square,1000.0,,go,123335,0.0,test_trial,A3QAHF4UUBM7ZO,1
250.0,500.0,<img class = center src='/static/experiments/stop_signal_single_task_network/images/stopSignal.png'></img>,go,,2000.0,,77.0,1.0,0.0,12.0,stop_signal_single_task_network,1.0,77.0,"[90, 77]",462,square,1000.0,,go,125839,0.0,test_trial,A3QAHF4UUBM7ZO,1
250.0,500.0,<img class = center src='/static/experiments/stop_signal_single_task_network/images/stopSignal.png'></img>,stop,,2000.0,,-1.0,1.0,0.0,13.0,stop_signal_single_task_network,,-1.0,"[90, 77]",-1,circle,1000.0,1.0,stop,128343,0.0,test_trial,A3QAHF4UUBM7ZO,1
300.0,500.0,<img class = center src='/static/experiments/stop_signal_single_task_network/images/stopSignal.png'></img>,stop,,2000.0,,-1.0,1.0,0.0,14.0,stop_signal_single_task_network,,-1.0,"[90, 77]",-1,square,1000.0,1.0,stop,130847,0.0,test_trial,A3QAHF4UUBM7ZO,1
350.0,500.0,<img class = center src='/static/experiments/stop_signal_single_task_network/images/stopSignal.png'></img>,go,,2000.0,,77.0,1.0,0.0,15.0,stop_signal_single_task_network,1.0,77.0,"[90, 77]",718,square,1000.0,,go,133352,0.0,test_trial,A3QAHF4UUBM7ZO,1
350.0,500.0,<img class = center src='/static/experiments/stop_signal_single_task_network/images/stopSignal.png'></img>,go,,2000.0,,90.0,1.0,0.0,16.0,stop_signal_single_task_network,1.0,90.0,"[90, 77]",696,circle,1000.0,,go,135855,0.0,test_trial,A3QAHF4UUBM7ZO,1
350.0,500.0,<img class = center src='/static/experiments/stop_signal_single_task_network/images/stopSignal.png'></img>,go,,2000.0,,90.0,1.0,0.0,17.0,stop_signal_single_task_network,1.0,90.0,"[90, 77]",565,circle,1000.0,,go,138360,0.0,test_trial,A3QAHF4UUBM7ZO,1
350.0,500.0,<img class = center src='/static/experiments/stop_signal_single_task_network/images/stopSignal.png'></img>,go,,2000.0,,77.0,1.0,0.0,18.0,stop_signal_single_task_network,1.0,77.0,"[90, 77]",544,square,1000.0,,go,140867,0.0,test_trial,A3QAHF4UUBM7ZO,1
350.0,500.0,<img class = center src='/static/experiments/stop_signal_single_task_network/images/stopSignal.png'></img>,go,,2000.0,,90.0,1.0,0.0,19.0,stop_signal_single_task_network,1.0,90.0,"[90, 77]",544,circle,1000.0,,go,143371,0.0,test_trial,A3QAHF4UUBM7ZO,1
350.0,500.0,<img class = center src='/static/experiments/stop_signal_single_task_network/images/stopSignal.png'></img>,stop,,2000.0,,-1.0,0.0,0.0,20.0,stop_signal_single_task_network,,90.0,"[90, 77]",695,circle,1000.0,0.0,stop,145876,0.0,test_trial,A3QAHF4UUBM7ZO,0
300.0,500.0,<img class = center src='/static/experiments/stop_signal_single_task_network/images/stopSignal.png'></img>,go,,2000.0,,77.0,1.0,0.0,21.0,stop_signal_single_task_network,1.0,77.0,"[90, 77]",614,square,1000.0,,go,148380,0.0,test_trial,A3QAHF4UUBM7ZO,1
300.0,500.0,<img class = center src='/static/experiments/stop_signal_single_task_network/images/stopSignal.png'></img>,stop,,2000.0,,-1.0,1.0,0.0,22.0,stop_signal_single_task_network,,-1.0,"[90, 77]",-1,circle,1000.0,1.0,stop,150884,0.0,test_trial,A3QAHF4UUBM7ZO,1
350.0,500.0,<img class = center src='/static/experiments/stop_signal_single_task_network/images/stopSignal.png'></img>,go,,2000.0,,90.0,0.0,0.0,23.0,stop_signal_single_task_network,0.0,77.0,"[90, 77]",651,circle,1000.0,,go,153388,0.0,test_trial,A3QAHF4UUBM7ZO,0
350.0,500.0,<img class = center src='/static/experiments/stop_signal_single_task_network/images/stopSignal.png'></img>,go,,2000.0,,90.0,1.0,0.0,24.0,stop_signal_single_task_network,1.0,90.0,"[90, 77]",628,circle,1000.0,,go,155894,0.0,test_trial,A3QAHF4UUBM7ZO,1
350.0,500.0,<img class = center src='/static/experiments/stop_signal_single_task_network/images/stopSignal.png'></img>,go,,2000.0,,77.0,1.0,0.0,25.0,stop_signal_single_task_network,1.0,77.0,"[90, 77]",415,square,1000.0,,go,158398,0.0,test_trial,A3QAHF4UUBM7ZO,1
350.0,500.0,<img class = center src='/static/experiments/stop_signal_single_task_network/images/stopSignal.png'></img>,stop,,2000.0,,-1.0,0.0,0.0,26.0,stop_signal_single_task_network,,90.0,"[90, 77]",464,circle,1000.0,0.0,stop,160903,0.0,test_trial,A3QAHF4UUBM7ZO,0
300.0,500.0,<img class = center src='/static/experiments/stop_signal_single_task_network/images/stopSignal.png'></img>,go,,2000.0,,90.0,1.0,0.0,27.0,stop_signal_single_task_network,1.0,90.0,"[90, 77]",752,circle,1000.0,,go,163406,0.0,test_trial,A3QAHF4UUBM7ZO,1
300.0,500.0,<img class = center src='/static/experiments/stop_signal_single_task_network/images/stopSignal.png'></img>,go,,2000.0,,90.0,1.0,0.0,28.0,stop_signal_single_task_network,1.0,90.0,"[90, 77]",748,circle,1000.0,,go,165910,0.0,test_trial,A3QAHF4UUBM7ZO,1
300.0,500.0,<img class = center src='/static/experiments/stop_signal_single_task_network/images/stopSignal.png'></img>,stop,,2000.0,,-1.0,1.0,0.0,29.0,stop_signal_single_task_network,,-1.0,"[90, 77]",-1,square,1000.0,1.0,stop,168414,0.0,test_trial,A3QAHF4UUBM7ZO,1
350.0,500.0,<img class = center src='/static/experiments/stop_signal_single_task_network/images/stopSignal.png'></img>,stop,,2000.0,,-1.0,0.0,0.0,30.0,stop_signal_single_task_network,,77.0,"[90, 77]",566,square,1000.0,0.0,stop,170918,0.0,test_trial,A3QAHF4UUBM7ZO,0
300.0,500.0,<img class = center src='/static/experiments/stop_signal_single_task_network/images/stopSignal.png'></img>,stop,,2000.0,,-1.0,0.0,0.0,31.0,stop_signal_single_task_network,,77.0,"[90, 77]",497,square,1000.0,0.0,stop,173424,0.0,test_trial,A3QAHF4UUBM7ZO,0
250.0,500.0,<img class = center src='/static/experiments/stop_signal_single_task_network/images/stopSignal.png'></img>,go,,2000.0,,90.0,1.0,0.0,32.0,stop_signal_single_task_network,1.0,90.0,"[90, 77]",575,circle,1000.0,,go,175928,0.0,test_trial,A3QAHF4UUBM7ZO,1
250.0,500.0,<img class = center src='/static/experiments/stop_signal_single_task_network/images/stopSignal.png'></img>,stop,,2000.0,,-1.0,1.0,0.0,33.0,stop_signal_single_task_network,,-1.0,"[90, 77]",-1,circle,1000.0,1.0,stop,178432,0.0,test_trial,A3QAHF4UUBM7ZO,1
300.0,500.0,<img class = center src='/static/experiments/stop_signal_single_task_network/images/stopSignal.png'></img>,go,,2000.0,,90.0,1.0,0.0,34.0,stop_signal_single_task_network,1.0,90.0,"[90, 77]",606,circle,1000.0,,go,180935,0.0,test_trial,A3QAHF4UUBM7ZO,1
300.0,500.0,<img class = center src='/static/experiments/stop_signal_single_task_network/images/stopSignal.png'></img>,go,,2000.0,,90.0,1.0,0.0,35.0,stop_signal_single_task_network,1.0,90.0,"[90, 77]",479,circle,1000.0,,go,183441,0.0,test_trial,A3QAHF4UUBM7ZO,1
300.0,500.0,<img class = center src='/static/experiments/stop_signal_single_task_network/images/stopSignal.png'></img>,go,,2000.0,,90.0,1.0,0.0,36.0,stop_signal_single_task_network,1.0,90.0,"[90, 77]",546,circle,1000.0,,go,185946,0.0,test_trial,A3QAHF4UUBM7ZO,1
300.0,500.0,<img class = center src='/static/experiments/stop_signal_single_task_network/images/stopSignal.png'></img>,go,,2000.0,,77.0,1.0,0.0,37.0,stop_signal_single_task_network,1.0,77.0,"[90, 77]",556,square,1000.0,,go,188450,0.0,test_trial,A3QAHF4UUBM7ZO,1
300.0,500.0,<img class = center src='/static/experiments/stop_signal_single_task_network/images/stopSignal.png'></img>,go,,2000.0,,77.0,1.0,0.0,38.0,stop_signal_single_task_network,1.0,77.0,"[90, 77]",479,square,1000.0,,go,190955,0.0,test_trial,A3QAHF4UUBM7ZO,1
300.0,500.0,<img class = center src='/static/experiments/stop_signal_single_task_network/images/stopSignal.png'></img>,go,,2000.0,,77.0,1.0,0.0,39.0,stop_signal_single_task_network,1.0,77.0,"[90, 77]",400,square,1000.0,,go,193459,0.0,test_trial,A3QAHF4UUBM7ZO,1
300.0,500.0,<img class = center src='/static/experiments/stop_signal_single_task_network/images/stopSignal.png'></img>,stop,,2000.0,,-1.0,0.0,0.0,40.0,stop_signal_single_task_network,,77.0,"[90, 77]",429,square,1000.0,0.0,stop,195964,0.0,test_trial,A3QAHF4UUBM7ZO,0
250.0,500.0,<img class = center src='/static/experiments/stop_signal_single_task_network/images/stopSignal.png'></img>,stop,,2000.0,,-1.0,0.0,0.0,41.0,stop_signal_single_task_network,,90.0,"[90, 77]",411,circle,1000.0,0.0,stop,198468,0.0,test_trial,A3QAHF4UUBM7ZO,0
200.0,500.0,<img class = center src='/static/experiments/stop_signal_single_task_network/images/stopSignal.png'></img>,go,,2000.0,,77.0,1.0,0.0,42.0,stop_signal_single_task_network,1.0,77.0,"[90, 77]",672,square,1000.0,,go,200972,0.0,test_trial,A3QAHF4UUBM7ZO,1
200.0,500.0,<img class = center src='/static/experiments/stop_signal_single_task_network/images/stopSignal.png'></img>,stop,,2000.0,,-1.0,1.0,0.0,43.0,stop_signal_single_task_network,,-1.0,"[90, 77]",-1,circle,1000.0,1.0,stop,203476,0.0,test_trial,A3QAHF4UUBM7ZO,1
250.0,500.0,<img class = center src='/static/experiments/stop_signal_single_task_network/images/stopSignal.png'></img>,stop,,2000.0,,-1.0,0.0,0.0,44.0,stop_signal_single_task_network,,90.0,"[90, 77]",520,square,1000.0,0.0,stop,205981,0.0,test_trial,A3QAHF4UUBM7ZO,0
200.0,500.0,<img class = center src='/static/experiments/stop_signal_single_task_network/images/stopSignal.png'></img>,go,,2000.0,,90.0,1.0,0.0,45.0,stop_signal_single_task_network,1.0,90.0,"[90, 77]",477,circle,1000.0,,go,208486,0.0,test_trial,A3QAHF4UUBM7ZO,1
200.0,500.0,<img class = center src='/static/experiments/stop_signal_single_task_network/images/stopSignal.png'></img>,stop,,2000.0,,-1.0,1.0,0.0,46.0,stop_signal_single_task_network,,-1.0,"[90, 77]",-1,square,1000.0,1.0,stop,210990,0.0,test_trial,A3QAHF4UUBM7ZO,1
250.0,500.0,<img class = center src='/static/experiments/stop_signal_single_task_network/images/stopSignal.png'></img>,go,,2000.0,,77.0,1.0,0.0,47.0,stop_signal_single_task_network,1.0,77.0,"[90, 77]",584,square,1000.0,,go,213494,0.0,test_trial,A3QAHF4UUBM7ZO,1
250.0,500.0,<img class = center src='/static/experiments/stop_signal_single_task_network/images/stopSignal.png'></img>,go,,2000.0,,90.0,1.0,0.0,48.0,stop_signal_single_task_network,1.0,90.0,"[90, 77]",713,circle,1000.0,,go,215998,0.0,test_trial,A3QAHF4UUBM7ZO,1
250.0,500.0,<img class = center src='/static/experiments/stop_signal_single_task_network/images/stopSignal.png'></img>,stop,,2000.0,,-1.0,1.0,1.0,1.0,stop_signal_single_task_network,,-1.0,"[90, 77]",-1,circle,1000.0,1.0,stop,228931,0.0,test_trial,A3QAHF4UUBM7ZO,1
300.0,500.0,<img class = center src='/static/experiments/stop_signal_single_task_network/images/stopSignal.png'></img>,go,,2000.0,,90.0,1.0,1.0,2.0,stop_signal_single_task_network,1.0,90.0,"[90, 77]",658,circle,1000.0,,go,231435,0.0,test_trial,A3QAHF4UUBM7ZO,1
300.0,500.0,<img class = center src='/static/experiments/stop_signal_single_task_network/images/stopSignal.png'></img>,go,,2000.0,,77.0,1.0,1.0,3.0,stop_signal_single_task_network,1.0,77.0,"[90, 77]",583,square,1000.0,,go,233939,0.0,test_trial,A3QAHF4UUBM7ZO,1
300.0,500.0,<img class = center src='/static/experiments/stop_signal_single_task_network/images/stopSignal.png'></img>,go,,2000.0,,90.0,0.0,1.0,4.0,stop_signal_single_task_network,0.0,77.0,"[90, 77]",630,circle,1000.0,,go,236444,0.0,test_trial,A3QAHF4UUBM7ZO,0
300.0,500.0,<img class = center src='/static/experiments/stop_signal_single_task_network/images/stopSignal.png'></img>,go,,2000.0,,90.0,1.0,1.0,5.0,stop_signal_single_task_network,1.0,90.0,"[90, 77]",499,circle,1000.0,,go,238948,0.0,test_trial,A3QAHF4UUBM7ZO,1
300.0,500.0,<img class = center src='/static/experiments/stop_signal_single_task_network/images/stopSignal.png'></img>,go,,2000.0,,77.0,1.0,1.0,6.0,stop_signal_single_task_network,1.0,77.0,"[90, 77]",618,square,1000.0,,go,241453,0.0,test_trial,A3QAHF4UUBM7ZO,1
300.0,500.0,<img class = center src='/static/experiments/stop_signal_single_task_network/images/stopSignal.png'></img>,go,,2000.0,,90.0,1.0,1.0,7.0,stop_signal_single_task_network,1.0,90.0,"[90, 77]",682,circle,1000.0,,go,243959,0.0,test_trial,A3QAHF4UUBM7ZO,1
300.0,500.0,<img class = center src='/static/experiments/stop_signal_single_task_network/images/stopSignal.png'></img>,stop,,2000.0,,-1.0,0.0,1.0,8.0,stop_signal_single_task_network,,77.0,"[90, 77]",539,square,1000.0,0.0,stop,246464,0.0,test_trial,A3QAHF4UUBM7ZO,0
250.0,500.0,<img class = center src='/static/experiments/stop_signal_single_task_network/images/stopSignal.png'></img>,stop,,2000.0,,-1.0,1.0,1.0,9.0,stop_signal_single_task_network,,-1.0,"[90, 77]",-1,circle,1000.0,1.0,stop,248968,0.0,test_trial,A3QAHF4UUBM7ZO,1
300.0,500.0,<img class = center src='/static/experiments/stop_signal_single_task_network/images/stopSignal.png'></img>,go,,2000.0,,90.0,1.0,1.0,10.0,stop_signal_single_task_network,1.0,90.0,"[90, 77]",750,circle,1000.0,,go,251473,0.0,test_trial,A3QAHF4UUBM7ZO,1
300.0,500.0,<img class = center src='/static/experiments/stop_signal_single_task_network/images/stopSignal.png'></img>,go,,2000.0,,90.0,1.0,1.0,11.0,stop_signal_single_task_network,1.0,90.0,"[90, 77]",632,circle,1000.0,,go,253977,0.0,test_trial,A3QAHF4UUBM7ZO,1
300.0,500.0,<img class = center src='/static/experiments/stop_signal_single_task_network/images/stopSignal.png'></img>,stop,,2000.0,,-1.0,1.0,1.0,12.0,stop_signal_single_task_network,,-1.0,"[90, 77]",-1,circle,1000.0,1.0,stop,256480,0.0,test_trial,A3QAHF4UUBM7ZO,1
350.0,500.0,<img class = center src='/static/experiments/stop_signal_single_task_network/images/stopSignal.png'></img>,stop,,2000.0,,-1.0,0.0,1.0,13.0,stop_signal_single_task_network,,90.0,"[90, 77]",413,circle,1000.0,0.0,stop,258985,0.0,test_trial,A3QAHF4UUBM7ZO,0
300.0,500.0,<img class = center src='/static/experiments/stop_signal_single_task_network/images/stopSignal.png'></img>,go,,2000.0,,77.0,1.0,1.0,14.0,stop_signal_single_task_network,1.0,77.0,"[90, 77]",634,square,1000.0,,go,261488,0.0,test_trial,A3QAHF4UUBM7ZO,1
300.0,500.0,<img class = center src='/static/experiments/stop_signal_single_task_network/images/stopSignal.png'></img>,go,,2000.0,,90.0,1.0,1.0,15.0,stop_signal_single_task_network,1.0,90.0,"[90, 77]",738,circle,1000.0,,go,263993,0.0,test_trial,A3QAHF4UUBM7ZO,1
300.0,500.0,<img class = center src='/static/experiments/stop_signal_single_task_network/images/stopSignal.png'></img>,stop,,2000.0,,-1.0,1.0,1.0,16.0,stop_signal_single_task_network,,-1.0,"[90, 77]",-1,square,1000.0,1.0,stop,266496,0.0,test_trial,A3QAHF4UUBM7ZO,1
350.0,500.0,<img class = center src='/static/experiments/stop_signal_single_task_network/images/stopSignal.png'></img>,go,,2000.0,,77.0,1.0,1.0,17.0,stop_signal_single_task_network,1.0,77.0,"[90, 77]",522,square,1000.0,,go,269001,0.0,test_trial,A3QAHF4UUBM7ZO,1
350.0,500.0,<img class = center src='/static/experiments/stop_signal_single_task_network/images/stopSignal.png'></img>,go,,2000.0,,77.0,1.0,1.0,18.0,stop_signal_single_task_network,1.0,77.0,"[90, 77]",525,square,1000.0,,go,271505,0.0,test_trial,A3QAHF4UUBM7ZO,1
350.0,500.0,<img class = center src='/static/experiments/stop_signal_single_task_network/images/stopSignal.png'></img>,go,,2000.0,,77.0,1.0,1.0,19.0,stop_signal_single_task_network,1.0,77.0,"[90, 77]",855,square,1000.0,,go,274008,0.0,test_trial,A3QAHF4UUBM7ZO,1
350.0,500.0,<img class = center src='/static/experiments/stop_signal_single_task_network/images/stopSignal.png'></img>,go,,2000.0,,77.0,1.0,1.0,20.0,stop_signal_single_task_network,1.0,77.0,"[90, 77]",595,square,1000.0,,go,276512,0.0,test_trial,A3QAHF4UUBM7ZO,1
350.0,500.0,<img class = center src='/static/experiments/stop_signal_single_task_network/images/stopSignal.png'></img>,go,,2000.0,,77.0,1.0,1.0,21.0,stop_signal_single_task_network,1.0,77.0,"[90, 77]",530,square,1000.0,,go,279016,0.0,test_trial,A3QAHF4UUBM7ZO,1
350.0,500.0,<img class = center src='/static/experiments/stop_signal_single_task_network/images/stopSignal.png'></img>,stop,,2000.0,,-1.0,0.0,1.0,22.0,stop_signal_single_task_network,,77.0,"[90, 77]",452,square,1000.0,0.0,stop,281521,0.0,test_trial,A3QAHF4UUBM7ZO,0
300.0,500.0,<img class = center src='/static/experiments/stop_signal_single_task_network/images/stopSignal.png'></img>,go,,2000.0,,90.0,1.0,1.0,23.0,stop_signal_single_task_network,1.0,90.0,"[90, 77]",659,circle,1000.0,,go,284026,0.0,test_trial,A3QAHF4UUBM7ZO,1
300.0,500.0,<img class = center src='/static/experiments/stop_signal_single_task_network/images/stopSignal.png'></img>,go,,2000.0,,90.0,1.0,1.0,24.0,stop_signal_single_task_network,1.0,90.0,"[90, 77]",642,circle,1000.0,,go,286531,0.0,test_trial,A3QAHF4UUBM7ZO,1
300.0,500.0,<img class = center src='/static/experiments/stop_signal_single_task_network/images/stopSignal.png'></img>,go,,2000.0,,90.0,1.0,1.0,25.0,stop_signal_single_task_network,1.0,90.0,"[90, 77]",652,circle,1000.0,,go,289036,0.0,test_trial,A3QAHF4UUBM7ZO,1
300.0,500.0,<img class = center src='/static/experiments/stop_signal_single_task_network/images/stopSignal.png'></img>,go,,2000.0,,77.0,1.0,1.0,26.0,stop_signal_single_task_network,1.0,77.0,"[90, 77]",697,square,1000.0,,go,291540,0.0,test_trial,A3QAHF4UUBM7ZO,1
300.0,500.0,<img class = center src='/static/experiments/stop_signal_single_task_network/images/stopSignal.png'></img>,go,,2000.0,,77.0,1.0,1.0,27.0,stop_signal_single_task_network,1.0,77.0,"[90, 77]",665,square,1000.0,,go,294044,0.0,test_trial,A3QAHF4UUBM7ZO,1
300.0,500.0,<img class = center src='/static/experiments/stop_signal_single_task_network/images/stopSignal.png'></img>,go,,2000.0,,90.0,1.0,1.0,28.0,stop_signal_single_task_network,1.0,90.0,"[90, 77]",681,circle,1000.0,,go,296548,0.0,test_trial,A3QAHF4UUBM7ZO,1
300.0,500.0,<img class = center src='/static/experiments/stop_signal_single_task_network/images/stopSignal.png'></img>,go,,2000.0,,77.0,1.0,1.0,29.0,stop_signal_single_task_network,1.0,77.0,"[90, 77]",955,square,1000.0,,go,299053,0.0,test_trial,A3QAHF4UUBM7ZO,1
300.0,500.0,<img class = center src='/static/experiments/stop_signal_single_task_network/images/stopSignal.png'></img>,go,,2000.0,,90.0,0.0,1.0,30.0,stop_signal_single_task_network,0.0,77.0,"[90, 77]",772,circle,1000.0,,go,301557,0.0,test_trial,A3QAHF4UUBM7ZO,0
300.0,500.0,<img class = center src='/static/experiments/stop_signal_single_task_network/images/stopSignal.png'></img>,stop,,2000.0,,-1.0,1.0,1.0,31.0,stop_signal_single_task_network,,-1.0,"[90, 77]",-1,circle,1000.0,1.0,stop,304062,0.0,test_trial,A3QAHF4UUBM7ZO,1
350.0,500.0,<img class = center src='/static/experiments/stop_signal_single_task_network/images/stopSignal.png'></img>,stop,,2000.0,,-1.0,0.0,1.0,32.0,stop_signal_single_task_network,,90.0,"[90, 77]",653,circle,1000.0,0.0,stop,306566,0.0,test_trial,A3QAHF4UUBM7ZO,0
300.0,500.0,<img class = center src='/static/experiments/stop_signal_single_task_network/images/stopSignal.png'></img>,go,,2000.0,,77.0,1.0,1.0,33.0,stop_signal_single_task_network,1.0,77.0,"[90, 77]",714,square,1000.0,,go,309070,0.0,test_trial,A3QAHF4UUBM7ZO,1
300.0,500.0,<img class = center src='/static/experiments/stop_signal_single_task_network/images/stopSignal.png'></img>,stop,,2000.0,,-1.0,0.0,1.0,34.0,stop_signal_single_task_network,,90.0,"[90, 77]",570,square,1000.0,0.0,stop,311577,0.0,test_trial,A3QAHF4UUBM7ZO,0
250.0,500.0,<img class = center src='/static/experiments/stop_signal_single_task_network/images/stopSignal.png'></img>,stop,,2000.0,,-1.0,1.0,1.0,35.0,stop_signal_single_task_network,,-1.0,"[90, 77]",-1,circle,1000.0,1.0,stop,314082,0.0,test_trial,A3QAHF4UUBM7ZO,1
300.0,500.0,<img class = center src='/static/experiments/stop_signal_single_task_network/images/stopSignal.png'></img>,go,,2000.0,,90.0,0.0,1.0,36.0,stop_signal_single_task_network,0.0,77.0,"[90, 77]",772,circle,1000.0,,go,316587,0.0,test_trial,A3QAHF4UUBM7ZO,0
300.0,500.0,<img class = center src='/static/experiments/stop_signal_single_task_network/images/stopSignal.png'></img>,go,,2000.0,,77.0,1.0,1.0,37.0,stop_signal_single_task_network,1.0,77.0,"[90, 77]",601,square,1000.0,,go,319091,0.0,test_trial,A3QAHF4UUBM7ZO,1
300.0,500.0,<img class = center src='/static/experiments/stop_signal_single_task_network/images/stopSignal.png'></img>,stop,,2000.0,,-1.0,1.0,1.0,38.0,stop_signal_single_task_network,,-1.0,"[90, 77]",-1,square,1000.0,1.0,stop,321595,0.0,test_trial,A3QAHF4UUBM7ZO,1
350.0,500.0,<img class = center src='/static/experiments/stop_signal_single_task_network/images/stopSignal.png'></img>,stop,,2000.0,,-1.0,0.0,1.0,39.0,stop_signal_single_task_network,,77.0,"[90, 77]",584,square,1000.0,0.0,stop,324099,0.0,test_trial,A3QAHF4UUBM7ZO,0
300.0,500.0,<img class = center src='/static/experiments/stop_signal_single_task_network/images/stopSignal.png'></img>,go,,2000.0,,90.0,1.0,1.0,40.0,stop_signal_single_task_network,1.0,90.0,"[90, 77]",601,circle,1000.0,,go,326603,0.0,test_trial,A3QAHF4UUBM7ZO,1
300.0,500.0,<img class = center src='/static/experiments/stop_signal_single_task_network/images/stopSignal.png'></img>,go,,2000.0,,77.0,1.0,1.0,41.0,stop_signal_single_task_network,1.0,77.0,"[90, 77]",597,square,1000.0,,go,329108,0.0,test_trial,A3QAHF4UUBM7ZO,1
300.0,500.0,<img class = center src='/static/experiments/stop_signal_single_task_network/images/stopSignal.png'></img>,stop,,2000.0,,-1.0,0.0,1.0,42.0,stop_signal_single_task_network,,77.0,"[90, 77]",539,square,1000.0,0.0,stop,331614,0.0,test_trial,A3QAHF4UUBM7ZO,0
250.0,500.0,<img class = center src='/static/experiments/stop_signal_single_task_network/images/stopSignal.png'></img>,go,,2000.0,,90.0,0.0,1.0,43.0,stop_signal_single_task_network,0.0,-1.0,"[90, 77]",-1,circle,1000.0,,go,334119,0.0,test_trial,A3QAHF4UUBM7ZO,0
250.0,500.0,<img class = center src='/static/experiments/stop_signal_single_task_network/images/stopSignal.png'></img>,go,,2000.0,,77.0,1.0,1.0,44.0,stop_signal_single_task_network,1.0,77.0,"[90, 77]",657,square,1000.0,,go,336624,0.0,test_trial,A3QAHF4UUBM7ZO,1
250.0,500.0,<img class = center src='/static/experiments/stop_signal_single_task_network/images/stopSignal.png'></img>,stop,,2000.0,,-1.0,0.0,1.0,45.0,stop_signal_single_task_network,,77.0,"[90, 77]",541,square,1000.0,0.0,stop,339128,0.0,test_trial,A3QAHF4UUBM7ZO,0
200.0,500.0,<img class = center src='/static/experiments/stop_signal_single_task_network/images/stopSignal.png'></img>,stop,,2000.0,,-1.0,1.0,1.0,46.0,stop_signal_single_task_network,,-1.0,"[90, 77]",-1,circle,1000.0,1.0,stop,341633,0.0,test_trial,A3QAHF4UUBM7ZO,1
250.0,500.0,<img class = center src='/static/experiments/stop_signal_single_task_network/images/stopSignal.png'></img>,go,,2000.0,,77.0,1.0,1.0,47.0,stop_signal_single_task_network,1.0,77.0,"[90, 77]",479,square,1000.0,,go,344137,0.0,test_trial,A3QAHF4UUBM7ZO,1
250.0,500.0,<img class = center src='/static/experiments/stop_signal_single_task_network/images/stopSignal.png'></img>,go,,2000.0,,90.0,1.0,1.0,48.0,stop_signal_single_task_network,1.0,90.0,"[90, 77]",493,circle,1000.0,,go,346641,0.0,test_trial,A3QAHF4UUBM7ZO,1
250.0,500.0,<img class = center src='/static/experiments/stop_signal_single_task_network/images/stopSignal.png'></img>,go,,2000.0,,90.0,1.0,2.0,1.0,stop_signal_single_task_network,1.0,90.0,"[90, 77]",794,circle,1000.0,,go,384168,0.0,test_trial,A3QAHF4UUBM7ZO,1
250.0,500.0,<img class = center src='/static/experiments/stop_signal_single_task_network/images/stopSignal.png'></img>,go,,2000.0,,77.0,1.0,2.0,2.0,stop_signal_single_task_network,1.0,77.0,"[90, 77]",551,square,1000.0,,go,386672,0.0,test_trial,A3QAHF4UUBM7ZO,1
250.0,500.0,<img class = center src='/static/experiments/stop_signal_single_task_network/images/stopSignal.png'></img>,go,,2000.0,,77.0,1.0,2.0,3.0,stop_signal_single_task_network,1.0,77.0,"[90, 77]",684,square,1000.0,,go,389177,0.0,test_trial,A3QAHF4UUBM7ZO,1
250.0,500.0,<img class = center src='/static/experiments/stop_signal_single_task_network/images/stopSignal.png'></img>,go,,2000.0,,90.0,1.0,2.0,4.0,stop_signal_single_task_network,1.0,90.0,"[90, 77]",508,circle,1000.0,,go,391682,0.0,test_trial,A3QAHF4UUBM7ZO,1
250.0,500.0,<img class = center src='/static/experiments/stop_signal_single_task_network/images/stopSignal.png'></img>,go,,2000.0,,77.0,1.0,2.0,5.0,stop_signal_single_task_network,1.0,77.0,"[90, 77]",535,square,1000.0,,go,394186,0.0,test_trial,A3QAHF4UUBM7ZO,1
250.0,500.0,<img class = center src='/static/experiments/stop_signal_single_task_network/images/stopSignal.png'></img>,go,,2000.0,,77.0,1.0,2.0,6.0,stop_signal_single_task_network,1.0,77.0,"[90, 77]",481,square,1000.0,,go,396692,0.0,test_trial,A3QAHF4UUBM7ZO,1
250.0,500.0,<img class = center src='/static/experiments/stop_signal_single_task_network/images/stopSignal.png'></img>,stop,,2000.0,,-1.0,1.0,2.0,7.0,stop_signal_single_task_network,,-1.0,"[90, 77]",-1,circle,1000.0,1.0,stop,399196,0.0,test_trial,A3QAHF4UUBM7ZO,1
300.0,500.0,<img class = center src='/static/experiments/stop_signal_single_task_network/images/stopSignal.png'></img>,go,,2000.0,,90.0,1.0,2.0,8.0,stop_signal_single_task_network,1.0,90.0,"[90, 77]",579,circle,1000.0,,go,401701,0.0,test_trial,A3QAHF4UUBM7ZO,1
300.0,500.0,<img class = center src='/static/experiments/stop_signal_single_task_network/images/stopSignal.png'></img>,go,,2000.0,,90.0,1.0,2.0,9.0,stop_signal_single_task_network,1.0,90.0,"[90, 77]",436,circle,1000.0,,go,404208,0.0,test_trial,A3QAHF4UUBM7ZO,1
300.0,500.0,<img class = center src='/static/experiments/stop_signal_single_task_network/images/stopSignal.png'></img>,stop,,2000.0,,-1.0,0.0,2.0,10.0,stop_signal_single_task_network,,77.0,"[90, 77]",484,square,1000.0,0.0,stop,406713,0.0,test_trial,A3QAHF4UUBM7ZO,0
250.0,500.0,<img class = center src='/static/experiments/stop_signal_single_task_network/images/stopSignal.png'></img>,stop,,2000.0,,-1.0,1.0,2.0,11.0,stop_signal_single_task_network,,-1.0,"[90, 77]",-1,circle,1000.0,1.0,stop,409217,0.0,test_trial,A3QAHF4UUBM7ZO,1
300.0,500.0,<img class = center src='/static/experiments/stop_signal_single_task_network/images/stopSignal.png'></img>,stop,,2000.0,,-1.0,1.0,2.0,12.0,stop_signal_single_task_network,,-1.0,"[90, 77]",-1,circle,1000.0,1.0,stop,411724,0.0,test_trial,A3QAHF4UUBM7ZO,1
350.0,500.0,<img class = center src='/static/experiments/stop_signal_single_task_network/images/stopSignal.png'></img>,stop,,2000.0,,-1.0,1.0,2.0,13.0,stop_signal_single_task_network,,-1.0,"[90, 77]",-1,circle,1000.0,1.0,stop,414227,0.0,test_trial,A3QAHF4UUBM7ZO,1
400.0,500.0,<img class = center src='/static/experiments/stop_signal_single_task_network/images/stopSignal.png'></img>,go,,2000.0,,90.0,1.0,2.0,14.0,stop_signal_single_task_network,1.0,90.0,"[90, 77]",563,circle,1000.0,,go,416733,0.0,test_trial,A3QAHF4UUBM7ZO,1
400.0,500.0,<img class = center src='/static/experiments/stop_signal_single_task_network/images/stopSignal.png'></img>,go,,2000.0,,77.0,1.0,2.0,15.0,stop_signal_single_task_network,1.0,77.0,"[90, 77]",639,square,1000.0,,go,419238,0.0,test_trial,A3QAHF4UUBM7ZO,1
400.0,500.0,<img class = center src='/static/experiments/stop_signal_single_task_network/images/stopSignal.png'></img>,go,,2000.0,,77.0,1.0,2.0,16.0,stop_signal_single_task_network,1.0,77.0,"[90, 77]",505,square,1000.0,,go,421741,0.0,test_trial,A3QAHF4UUBM7ZO,1
400.0,500.0,<img class = center src='/static/experiments/stop_signal_single_task_network/images/stopSignal.png'></img>,go,,2000.0,,77.0,1.0,2.0,17.0,stop_signal_single_task_network,1.0,77.0,"[90, 77]",487,square,1000.0,,go,424245,0.0,test_trial,A3QAHF4UUBM7ZO,1
400.0,500.0,<img class = center src='/static/experiments/stop_signal_single_task_network/images/stopSignal.png'></img>,stop,,2000.0,,-1.0,0.0,2.0,18.0,stop_signal_single_task_network,,90.0,"[90, 77]",549,circle,1000.0,0.0,stop,426749,0.0,test_trial,A3QAHF4UUBM7ZO,0
350.0,500.0,<img class = center src='/static/experiments/stop_signal_single_task_network/images/stopSignal.png'></img>,stop,,2000.0,,-1.0,1.0,2.0,19.0,stop_signal_single_task_network,,-1.0,"[90, 77]",-1,square,1000.0,1.0,stop,429254,0.0,test_trial,A3QAHF4UUBM7ZO,1
400.0,500.0,<img class = center src='/static/experiments/stop_signal_single_task_network/images/stopSignal.png'></img>,go,,2000.0,,77.0,1.0,2.0,20.0,stop_signal_single_task_network,1.0,77.0,"[90, 77]",531,square,1000.0,,go,431757,0.0,test_trial,A3QAHF4UUBM7ZO,1
400.0,500.0,<img class = center src='/static/experiments/stop_signal_single_task_network/images/stopSignal.png'></img>,go,,2000.0,,77.0,1.0,2.0,21.0,stop_signal_single_task_network,1.0,77.0,"[90, 77]",440,square,1000.0,,go,434261,0.0,test_trial,A3QAHF4UUBM7ZO,1
400.0,500.0,<img class = center src='/static/experiments/stop_signal_single_task_network/images/stopSignal.png'></img>,stop,,2000.0,,-1.0,0.0,2.0,22.0,stop_signal_single_task_network,,77.0,"[90, 77]",478,square,1000.0,0.0,stop,436765,0.0,test_trial,A3QAHF4UUBM7ZO,0
350.0,500.0,<img class = center src='/static/experiments/stop_signal_single_task_network/images/stopSignal.png'></img>,go,,2000.0,,77.0,1.0,2.0,23.0,stop_signal_single_task_network,1.0,77.0,"[90, 77]",458,square,1000.0,,go,439270,0.0,test_trial,A3QAHF4UUBM7ZO,1
350.0,500.0,<img class = center src='/static/experiments/stop_signal_single_task_network/images/stopSignal.png'></img>,go,,2000.0,,90.0,0.0,2.0,24.0,stop_signal_single_task_network,0.0,77.0,"[90, 77]",477,circle,1000.0,,go,441776,0.0,test_trial,A3QAHF4UUBM7ZO,0
350.0,500.0,<img class = center src='/static/experiments/stop_signal_single_task_network/images/stopSignal.png'></img>,go,,2000.0,,90.0,1.0,2.0,25.0,stop_signal_single_task_network,1.0,90.0,"[90, 77]",572,circle,1000.0,,go,444280,0.0,test_trial,A3QAHF4UUBM7ZO,1
350.0,500.0,<img class = center src='/static/experiments/stop_signal_single_task_network/images/stopSignal.png'></img>,stop,,2000.0,,-1.0,0.0,2.0,26.0,stop_signal_single_task_network,,77.0,"[90, 77]",517,square,1000.0,0.0,stop,446783,0.0,test_trial,A3QAHF4UUBM7ZO,0
300.0,500.0,<img class = center src='/static/experiments/stop_signal_single_task_network/images/stopSignal.png'></img>,stop,,2000.0,,-1.0,1.0,2.0,27.0,stop_signal_single_task_network,,-1.0,"[90, 77]",-1,square,1000.0,1.0,stop,449289,0.0,test_trial,A3QAHF4UUBM7ZO,1
350.0,500.0,<img class = center src='/static/experiments/stop_signal_single_task_network/images/stopSignal.png'></img>,stop,,2000.0,,-1.0,0.0,2.0,28.0,stop_signal_single_task_network,,90.0,"[90, 77]",628,circle,1000.0,0.0,stop,451792,0.0,test_trial,A3QAHF4UUBM7ZO,0
300.0,500.0,<img class = center src='/static/experiments/stop_signal_single_task_network/images/stopSignal.png'></img>,go,,2000.0,,90.0,1.0,2.0,29.0,stop_signal_single_task_network,1.0,90.0,"[90, 77]",625,circle,1000.0,,go,454296,0.0,test_trial,A3QAHF4UUBM7ZO,1
300.0,500.0,<img class = center src='/static/experiments/stop_signal_single_task_network/images/stopSignal.png'></img>,stop,,2000.0,,-1.0,1.0,2.0,30.0,stop_signal_single_task_network,,-1.0,"[90, 77]",-1,square,1000.0,1.0,stop,456801,0.0,test_trial,A3QAHF4UUBM7ZO,1
350.0,500.0,<img class = center src='/static/experiments/stop_signal_single_task_network/images/stopSignal.png'></img>,go,,2000.0,,77.0,1.0,2.0,31.0,stop_signal_single_task_network,1.0,77.0,"[90, 77]",574,square,1000.0,,go,459305,0.0,test_trial,A3QAHF4UUBM7ZO,1
350.0,500.0,<img class = center src='/static/experiments/stop_signal_single_task_network/images/stopSignal.png'></img>,stop,,2000.0,,-1.0,0.0,2.0,32.0,stop_signal_single_task_network,,90.0,"[90, 77]",525,circle,1000.0,0.0,stop,461809,0.0,test_trial,A3QAHF4UUBM7ZO,0
300.0,500.0,<img class = center src='/static/experiments/stop_signal_single_task_network/images/stopSignal.png'></img>,go,,2000.0,,90.0,0.0,2.0,33.0,stop_signal_single_task_network,0.0,77.0,"[90, 77]",671,circle,1000.0,,go,464313,0.0,test_trial,A3QAHF4UUBM7ZO,0
300.0,500.0,<img class = center src='/static/experiments/stop_signal_single_task_network/images/stopSignal.png'></img>,go,,2000.0,,90.0,1.0,2.0,34.0,stop_signal_single_task_network,1.0,90.0,"[90, 77]",619,circle,1000.0,,go,466817,0.0,test_trial,A3QAHF4UUBM7ZO,1
300.0,500.0,<img class = center src='/static/experiments/stop_signal_single_task_network/images/stopSignal.png'></img>,go,,2000.0,,77.0,1.0,2.0,35.0,stop_signal_single_task_network,1.0,77.0,"[90, 77]",721,square,1000.0,,go,469323,0.0,test_trial,A3QAHF4UUBM7ZO,1
300.0,500.0,<img class = center src='/static/experiments/stop_signal_single_task_network/images/stopSignal.png'></img>,stop,,2000.0,,-1.0,1.0,2.0,36.0,stop_signal_single_task_network,,-1.0,"[90, 77]",-1,square,1000.0,1.0,stop,471828,0.0,test_trial,A3QAHF4UUBM7ZO,1
350.0,500.0,<img class = center src='/static/experiments/stop_signal_single_task_network/images/stopSignal.png'></img>,go,,2000.0,,90.0,1.0,2.0,37.0,stop_signal_single_task_network,1.0,90.0,"[90, 77]",668,circle,1000.0,,go,474332,0.0,test_trial,A3QAHF4UUBM7ZO,1
350.0,500.0,<img class = center src='/static/experiments/stop_signal_single_task_network/images/stopSignal.png'></img>,go,,2000.0,,77.0,1.0,2.0,38.0,stop_signal_single_task_network,1.0,77.0,"[90, 77]",530,square,1000.0,,go,476836,0.0,test_trial,A3QAHF4UUBM7ZO,1
350.0,500.0,<img class = center src='/static/experiments/stop_signal_single_task_network/images/stopSignal.png'></img>,stop,,2000.0,,-1.0,1.0,2.0,39.0,stop_signal_single_task_network,,-1.0,"[90, 77]",-1,circle,1000.0,1.0,stop,479340,0.0,test_trial,A3QAHF4UUBM7ZO,1
400.0,500.0,<img class = center src='/static/experiments/stop_signal_single_task_network/images/stopSignal.png'></img>,go,,2000.0,,77.0,1.0,2.0,40.0,stop_signal_single_task_network,1.0,77.0,"[90, 77]",750,square,1000.0,,go,481845,0.0,test_trial,A3QAHF4UUBM7ZO,1
400.0,500.0,<img class = center src='/static/experiments/stop_signal_single_task_network/images/stopSignal.png'></img>,stop,,2000.0,,-1.0,0.0,2.0,41.0,stop_signal_single_task_network,,77.0,"[90, 77]",558,square,1000.0,0.0,stop,484349,0.0,test_trial,A3QAHF4UUBM7ZO,0
350.0,500.0,<img class = center src='/static/experiments/stop_signal_single_task_network/images/stopSignal.png'></img>,go,,2000.0,,90.0,1.0,2.0,42.0,stop_signal_single_task_network,1.0,90.0,"[90, 77]",568,circle,1000.0,,go,486854,0.0,test_trial,A3QAHF4UUBM7ZO,1
350.0,500.0,<img class = center src='/static/experiments/stop_signal_single_task_network/images/stopSignal.png'></img>,go,,2000.0,,90.0,1.0,2.0,43.0,stop_signal_single_task_network,1.0,90.0,"[90, 77]",515,circle,1000.0,,go,489358,0.0,test_trial,A3QAHF4UUBM7ZO,1
350.0,500.0,<img class = center src='/static/experiments/stop_signal_single_task_network/images/stopSignal.png'></img>,go,,2000.0,,90.0,1.0,2.0,44.0,stop_signal_single_task_network,1.0,90.0,"[90, 77]",703,circle,1000.0,,go,491862,0.0,test_trial,A3QAHF4UUBM7ZO,1
350.0,500.0,<img class = center src='/static/experiments/stop_signal_single_task_network/images/stopSignal.png'></img>,go,,2000.0,,90.0,1.0,2.0,45.0,stop_signal_single_task_network,1.0,90.0,"[90, 77]",603,circle,1000.0,,go,494367,0.0,test_trial,A3QAHF4UUBM7ZO,1
350.0,500.0,<img class = center src='/static/experiments/stop_signal_single_task_network/images/stopSignal.png'></img>,go,,2000.0,,90.0,1.0,2.0,46.0,stop_signal_single_task_network,1.0,90.0,"[90, 77]",543,circle,1000.0,,go,496871,0.0,test_trial,A3QAHF4UUBM7ZO,1
350.0,500.0,<img class = center src='/static/experiments/stop_signal_single_task_network/images/stopSignal.png'></img>,go,,2000.0,,77.0,1.0,2.0,47.0,stop_signal_single_task_network,1.0,77.0,"[90, 77]",553,square,1000.0,,go,499377,0.0,test_trial,A3QAHF4UUBM7ZO,1
350.0,500.0,<img class = center src='/static/experiments/stop_signal_single_task_network/images/stopSignal.png'></img>,go,,2000.0,,77.0,1.0,2.0,48.0,stop_signal_single_task_network,1.0,77.0,"[90, 77]",533,square,1000.0,,go,501882,0.0,test_trial,A3QAHF4UUBM7ZO,1
350.0,500.0,<img class = center src='/static/experiments/stop_signal_single_task_network/images/stopSignal.png'></img>,go,,2000.0,,90.0,1.0,0.0,1.0,stop_signal_single_task_network,1.0,90.0,"[90, 77]",557,circle,1000.0,,go,133250,0.0,test_trial,AIQT0DPRTXYYD,1
350.0,500.0,<img class = center src='/static/experiments/stop_signal_single_task_network/images/stopSignal.png'></img>,stop,,2000.0,,-1.0,0.0,0.0,2.0,stop_signal_single_task_network,,77.0,"[90, 77]",469,square,1000.0,0.0,stop,135754,0.0,test_trial,AIQT0DPRTXYYD,0
300.0,500.0,<img class = center src='/static/experiments/stop_signal_single_task_network/images/stopSignal.png'></img>,go,,2000.0,,77.0,1.0,0.0,3.0,stop_signal_single_task_network,1.0,77.0,"[90, 77]",523,square,1000.0,,go,138258,0.0,test_trial,AIQT0DPRTXYYD,1
300.0,500.0,<img class = center src='/static/experiments/stop_signal_single_task_network/images/stopSignal.png'></img>,go,,2000.0,,90.0,1.0,0.0,4.0,stop_signal_single_task_network,1.0,90.0,"[90, 77]",449,circle,1000.0,,go,140763,0.0,test_trial,AIQT0DPRTXYYD,1
300.0,500.0,<img class = center src='/static/experiments/stop_signal_single_task_network/images/stopSignal.png'></img>,go,,2000.0,,90.0,1.0,0.0,5.0,stop_signal_single_task_network,1.0,90.0,"[90, 77]",629,circle,1000.0,,go,143267,0.0,test_trial,AIQT0DPRTXYYD,1
300.0,500.0,<img class = center src='/static/experiments/stop_signal_single_task_network/images/stopSignal.png'></img>,go,,2000.0,,77.0,1.0,0.0,6.0,stop_signal_single_task_network,1.0,77.0,"[90, 77]",635,square,1000.0,,go,145771,0.0,test_trial,AIQT0DPRTXYYD,1
300.0,500.0,<img class = center src='/static/experiments/stop_signal_single_task_network/images/stopSignal.png'></img>,go,,2000.0,,77.0,1.0,0.0,7.0,stop_signal_single_task_network,1.0,77.0,"[90, 77]",684,square,1000.0,,go,148275,0.0,test_trial,AIQT0DPRTXYYD,1
300.0,500.0,<img class = center src='/static/experiments/stop_signal_single_task_network/images/stopSignal.png'></img>,go,,2000.0,,77.0,1.0,0.0,8.0,stop_signal_single_task_network,1.0,77.0,"[90, 77]",649,square,1000.0,,go,150778,0.0,test_trial,AIQT0DPRTXYYD,1
300.0,500.0,<img class = center src='/static/experiments/stop_signal_single_task_network/images/stopSignal.png'></img>,go,,2000.0,,77.0,1.0,0.0,9.0,stop_signal_single_task_network,1.0,77.0,"[90, 77]",612,square,1000.0,,go,153285,0.0,test_trial,AIQT0DPRTXYYD,1
300.0,500.0,<img class = center src='/static/experiments/stop_signal_single_task_network/images/stopSignal.png'></img>,go,,2000.0,,77.0,1.0,0.0,10.0,stop_signal_single_task_network,1.0,77.0,"[90, 77]",661,square,1000.0,,go,155791,0.0,test_trial,AIQT0DPRTXYYD,1
300.0,500.0,<img class = center src='/static/experiments/stop_signal_single_task_network/images/stopSignal.png'></img>,go,,2000.0,,90.0,1.0,0.0,11.0,stop_signal_single_task_network,1.0,90.0,"[90, 77]",639,circle,1000.0,,go,158299,0.0,test_trial,AIQT0DPRTXYYD,1
300.0,500.0,<img class = center src='/static/experiments/stop_signal_single_task_network/images/stopSignal.png'></img>,stop,,2000.0,,-1.0,1.0,0.0,12.0,stop_signal_single_task_network,,-1.0,"[90, 77]",-1,square,1000.0,1.0,stop,160805,0.0,test_trial,AIQT0DPRTXYYD,1
350.0,500.0,<img class = center src='/static/experiments/stop_signal_single_task_network/images/stopSignal.png'></img>,go,,2000.0,,90.0,1.0,0.0,13.0,stop_signal_single_task_network,1.0,90.0,"[90, 77]",586,circle,1000.0,,go,163312,0.0,test_trial,AIQT0DPRTXYYD,1
350.0,500.0,<img class = center src='/static/experiments/stop_signal_single_task_network/images/stopSignal.png'></img>,go,,2000.0,,77.0,1.0,0.0,14.0,stop_signal_single_task_network,1.0,77.0,"[90, 77]",533,square,1000.0,,go,165817,0.0,test_trial,AIQT0DPRTXYYD,1
350.0,500.0,<img class = center src='/static/experiments/stop_signal_single_task_network/images/stopSignal.png'></img>,stop,,2000.0,,-1.0,1.0,0.0,15.0,stop_signal_single_task_network,,-1.0,"[90, 77]",-1,circle,1000.0,1.0,stop,168322,0.0,test_trial,AIQT0DPRTXYYD,1
400.0,500.0,<img class = center src='/static/experiments/stop_signal_single_task_network/images/stopSignal.png'></img>,stop,,2000.0,,-1.0,1.0,0.0,16.0,stop_signal_single_task_network,,-1.0,"[90, 77]",-1,square,1000.0,1.0,stop,170830,0.0,test_trial,AIQT0DPRTXYYD,1
450.0,500.0,<img class = center src='/static/experiments/stop_signal_single_task_network/images/stopSignal.png'></img>,stop,,2000.0,,-1.0,0.0,0.0,17.0,stop_signal_single_task_network,,90.0,"[90, 77]",678,circle,1000.0,0.0,stop,173336,0.0,test_trial,AIQT0DPRTXYYD,0
400.0,500.0,<img class = center src='/static/experiments/stop_signal_single_task_network/images/stopSignal.png'></img>,go,,2000.0,,77.0,1.0,0.0,18.0,stop_signal_single_task_network,1.0,77.0,"[90, 77]",677,square,1000.0,,go,175840,0.0,test_trial,AIQT0DPRTXYYD,1
400.0,500.0,<img class = center src='/static/experiments/stop_signal_single_task_network/images/stopSignal.png'></img>,stop,,2000.0,,-1.0,0.0,0.0,19.0,stop_signal_single_task_network,,90.0,"[90, 77]",563,circle,1000.0,0.0,stop,178348,0.0,test_trial,AIQT0DPRTXYYD,0
350.0,500.0,<img class = center src='/static/experiments/stop_signal_single_task_network/images/stopSignal.png'></img>,go,,2000.0,,77.0,1.0,0.0,20.0,stop_signal_single_task_network,1.0,77.0,"[90, 77]",752,square,1000.0,,go,180854,0.0,test_trial,AIQT0DPRTXYYD,1
350.0,500.0,<img class = center src='/static/experiments/stop_signal_single_task_network/images/stopSignal.png'></img>,go,,2000.0,,90.0,1.0,0.0,21.0,stop_signal_single_task_network,1.0,90.0,"[90, 77]",698,circle,1000.0,,go,183360,0.0,test_trial,AIQT0DPRTXYYD,1
350.0,500.0,<img class = center src='/static/experiments/stop_signal_single_task_network/images/stopSignal.png'></img>,go,,2000.0,,77.0,1.0,0.0,22.0,stop_signal_single_task_network,1.0,77.0,"[90, 77]",684,square,1000.0,,go,185862,0.0,test_trial,AIQT0DPRTXYYD,1
350.0,500.0,<img class = center src='/static/experiments/stop_signal_single_task_network/images/stopSignal.png'></img>,go,,2000.0,,90.0,1.0,0.0,23.0,stop_signal_single_task_network,1.0,90.0,"[90, 77]",773,circle,1000.0,,go,188367,0.0,test_trial,AIQT0DPRTXYYD,1
350.0,500.0,<img class = center src='/static/experiments/stop_signal_single_task_network/images/stopSignal.png'></img>,go,,2000.0,,90.0,1.0,0.0,24.0,stop_signal_single_task_network,1.0,90.0,"[90, 77]",627,circle,1000.0,,go,190870,0.0,test_trial,AIQT0DPRTXYYD,1
350.0,500.0,<img class = center src='/static/experiments/stop_signal_single_task_network/images/stopSignal.png'></img>,go,,2000.0,,90.0,1.0,0.0,25.0,stop_signal_single_task_network,1.0,90.0,"[90, 77]",453,circle,1000.0,,go,193375,0.0,test_trial,AIQT0DPRTXYYD,1
350.0,500.0,<img class = center src='/static/experiments/stop_signal_single_task_network/images/stopSignal.png'></img>,stop,,2000.0,,-1.0,1.0,0.0,26.0,stop_signal_single_task_network,,-1.0,"[90, 77]",-1,square,1000.0,1.0,stop,195878,0.0,test_trial,AIQT0DPRTXYYD,1
400.0,500.0,<img class = center src='/static/experiments/stop_signal_single_task_network/images/stopSignal.png'></img>,go,,2000.0,,90.0,1.0,0.0,27.0,stop_signal_single_task_network,1.0,90.0,"[90, 77]",541,circle,1000.0,,go,198385,0.0,test_trial,AIQT0DPRTXYYD,1
400.0,500.0,<img class = center src='/static/experiments/stop_signal_single_task_network/images/stopSignal.png'></img>,go,,2000.0,,77.0,1.0,0.0,28.0,stop_signal_single_task_network,1.0,77.0,"[90, 77]",703,square,1000.0,,go,200887,0.0,test_trial,AIQT0DPRTXYYD,1
400.0,500.0,<img class = center src='/static/experiments/stop_signal_single_task_network/images/stopSignal.png'></img>,go,,2000.0,,77.0,1.0,0.0,29.0,stop_signal_single_task_network,1.0,77.0,"[90, 77]",664,square,1000.0,,go,203395,0.0,test_trial,AIQT0DPRTXYYD,1
400.0,500.0,<img class = center src='/static/experiments/stop_signal_single_task_network/images/stopSignal.png'></img>,stop,,2000.0,,-1.0,1.0,0.0,30.0,stop_signal_single_task_network,,-1.0,"[90, 77]",-1,square,1000.0,1.0,stop,205902,0.0,test_trial,AIQT0DPRTXYYD,1
450.0,500.0,<img class = center src='/static/experiments/stop_signal_single_task_network/images/stopSignal.png'></img>,go,,2000.0,,90.0,1.0,0.0,31.0,stop_signal_single_task_network,1.0,90.0,"[90, 77]",687,circle,1000.0,,go,208411,0.0,test_trial,AIQT0DPRTXYYD,1
450.0,500.0,<img class = center src='/static/experiments/stop_signal_single_task_network/images/stopSignal.png'></img>,go,,2000.0,,90.0,0.0,0.0,32.0,stop_signal_single_task_network,0.0,77.0,"[90, 77]",875,circle,1000.0,,go,210914,0.0,test_trial,AIQT0DPRTXYYD,0
450.0,500.0,<img class = center src='/static/experiments/stop_signal_single_task_network/images/stopSignal.png'></img>,stop,,2000.0,,-1.0,0.0,0.0,33.0,stop_signal_single_task_network,,90.0,"[90, 77]",578,circle,1000.0,0.0,stop,213427,0.0,test_trial,AIQT0DPRTXYYD,0
400.0,500.0,<img class = center src='/static/experiments/stop_signal_single_task_network/images/stopSignal.png'></img>,stop,,2000.0,,-1.0,0.0,0.0,34.0,stop_signal_single_task_network,,77.0,"[90, 77]",610,square,1000.0,0.0,stop,215931,0.0,test_trial,AIQT0DPRTXYYD,0
350.0,500.0,<img class = center src='/static/experiments/stop_signal_single_task_network/images/stopSignal.png'></img>,go,,2000.0,,90.0,1.0,0.0,35.0,stop_signal_single_task_network,1.0,90.0,"[90, 77]",551,circle,1000.0,,go,218439,0.0,test_trial,AIQT0DPRTXYYD,1
350.0,500.0,<img class = center src='/static/experiments/stop_signal_single_task_network/images/stopSignal.png'></img>,stop,,2000.0,,-1.0,1.0,0.0,36.0,stop_signal_single_task_network,,-1.0,"[90, 77]",-1,circle,1000.0,1.0,stop,220947,0.0,test_trial,AIQT0DPRTXYYD,1
400.0,500.0,<img class = center src='/static/experiments/stop_signal_single_task_network/images/stopSignal.png'></img>,stop,,2000.0,,-1.0,1.0,0.0,37.0,stop_signal_single_task_network,,-1.0,"[90, 77]",-1,circle,1000.0,1.0,stop,223451,0.0,test_trial,AIQT0DPRTXYYD,1
450.0,500.0,<img class = center src='/static/experiments/stop_signal_single_task_network/images/stopSignal.png'></img>,go,,2000.0,,90.0,1.0,0.0,38.0,stop_signal_single_task_network,1.0,90.0,"[90, 77]",710,circle,1000.0,,go,225955,0.0,test_trial,AIQT0DPRTXYYD,1
450.0,500.0,<img class = center src='/static/experiments/stop_signal_single_task_network/images/stopSignal.png'></img>,go,,2000.0,,77.0,1.0,0.0,39.0,stop_signal_single_task_network,1.0,77.0,"[90, 77]",688,square,1000.0,,go,228461,0.0,test_trial,AIQT0DPRTXYYD,1
450.0,500.0,<img class = center src='/static/experiments/stop_signal_single_task_network/images/stopSignal.png'></img>,go,,2000.0,,77.0,0.0,0.0,40.0,stop_signal_single_task_network,0.0,90.0,"[90, 77]",610,square,1000.0,,go,230964,0.0,test_trial,AIQT0DPRTXYYD,0
450.0,500.0,<img class = center src='/static/experiments/stop_signal_single_task_network/images/stopSignal.png'></img>,go,,2000.0,,77.0,1.0,0.0,41.0,stop_signal_single_task_network,1.0,77.0,"[90, 77]",642,square,1000.0,,go,233471,0.0,test_trial,AIQT0DPRTXYYD,1
450.0,500.0,<img class = center src='/static/experiments/stop_signal_single_task_network/images/stopSignal.png'></img>,go,,2000.0,,90.0,1.0,0.0,42.0,stop_signal_single_task_network,1.0,90.0,"[90, 77]",678,circle,1000.0,,go,235979,0.0,test_trial,AIQT0DPRTXYYD,1
450.0,500.0,<img class = center src='/static/experiments/stop_signal_single_task_network/images/stopSignal.png'></img>,go,,2000.0,,77.0,1.0,0.0,43.0,stop_signal_single_task_network,1.0,77.0,"[90, 77]",576,square,1000.0,,go,238487,0.0,test_trial,AIQT0DPRTXYYD,1
450.0,500.0,<img class = center src='/static/experiments/stop_signal_single_task_network/images/stopSignal.png'></img>,stop,,2000.0,,-1.0,0.0,0.0,44.0,stop_signal_single_task_network,,90.0,"[90, 77]",579,circle,1000.0,0.0,stop,240993,0.0,test_trial,AIQT0DPRTXYYD,0
400.0,500.0,<img class = center src='/static/experiments/stop_signal_single_task_network/images/stopSignal.png'></img>,stop,,2000.0,,-1.0,1.0,0.0,45.0,stop_signal_single_task_network,,-1.0,"[90, 77]",-1,circle,1000.0,1.0,stop,243500,0.0,test_trial,AIQT0DPRTXYYD,1
450.0,500.0,<img class = center src='/static/experiments/stop_signal_single_task_network/images/stopSignal.png'></img>,stop,,2000.0,,-1.0,1.0,0.0,46.0,stop_signal_single_task_network,,-1.0,"[90, 77]",-1,square,1000.0,1.0,stop,246008,0.0,test_trial,AIQT0DPRTXYYD,1
500.0,500.0,<img class = center src='/static/experiments/stop_signal_single_task_network/images/stopSignal.png'></img>,stop,,2000.0,,-1.0,0.0,0.0,47.0,stop_signal_single_task_network,,77.0,"[90, 77]",605,square,1000.0,0.0,stop,248513,0.0,test_trial,AIQT0DPRTXYYD,0
450.0,500.0,<img class = center src='/static/experiments/stop_signal_single_task_network/images/stopSignal.png'></img>,go,,2000.0,,90.0,1.0,0.0,48.0,stop_signal_single_task_network,1.0,90.0,"[90, 77]",874,circle,1000.0,,go,251019,0.0,test_trial,AIQT0DPRTXYYD,1
450.0,500.0,<img class = center src='/static/experiments/stop_signal_single_task_network/images/stopSignal.png'></img>,go,,2000.0,,77.0,1.0,1.0,1.0,stop_signal_single_task_network,1.0,77.0,"[90, 77]",600,square,1000.0,,go,339583,0.0,test_trial,AIQT0DPRTXYYD,1
450.0,500.0,<img class = center src='/static/experiments/stop_signal_single_task_network/images/stopSignal.png'></img>,stop,,2000.0,,-1.0,1.0,1.0,2.0,stop_signal_single_task_network,,-1.0,"[90, 77]",-1,square,1000.0,1.0,stop,342089,0.0,test_trial,AIQT0DPRTXYYD,1
500.0,500.0,<img class = center src='/static/experiments/stop_signal_single_task_network/images/stopSignal.png'></img>,go,,2000.0,,90.0,1.0,1.0,3.0,stop_signal_single_task_network,1.0,90.0,"[90, 77]",686,circle,1000.0,,go,344594,0.0,test_trial,AIQT0DPRTXYYD,1
500.0,500.0,<img class = center src='/static/experiments/stop_signal_single_task_network/images/stopSignal.png'></img>,go,,2000.0,,90.0,1.0,1.0,4.0,stop_signal_single_task_network,1.0,90.0,"[90, 77]",718,circle,1000.0,,go,347099,0.0,test_trial,AIQT0DPRTXYYD,1
500.0,500.0,<img class = center src='/static/experiments/stop_signal_single_task_network/images/stopSignal.png'></img>,go,,2000.0,,90.0,1.0,1.0,5.0,stop_signal_single_task_network,1.0,90.0,"[90, 77]",808,circle,1000.0,,go,349608,0.0,test_trial,AIQT0DPRTXYYD,1
500.0,500.0,<img class = center src='/static/experiments/stop_signal_single_task_network/images/stopSignal.png'></img>,go,,2000.0,,90.0,1.0,1.0,6.0,stop_signal_single_task_network,1.0,90.0,"[90, 77]",660,circle,1000.0,,go,352113,0.0,test_trial,AIQT0DPRTXYYD,1
500.0,500.0,<img class = center src='/static/experiments/stop_signal_single_task_network/images/stopSignal.png'></img>,go,,2000.0,,90.0,1.0,1.0,7.0,stop_signal_single_task_network,1.0,90.0,"[90, 77]",655,circle,1000.0,,go,354619,0.0,test_trial,AIQT0DPRTXYYD,1
500.0,500.0,<img class = center src='/static/experiments/stop_signal_single_task_network/images/stopSignal.png'></img>,go,,2000.0,,90.0,1.0,1.0,8.0,stop_signal_single_task_network,1.0,90.0,"[90, 77]",592,circle,1000.0,,go,357128,0.0,test_trial,AIQT0DPRTXYYD,1
500.0,500.0,<img class = center src='/static/experiments/stop_signal_single_task_network/images/stopSignal.png'></img>,go,,2000.0,,90.0,1.0,1.0,9.0,stop_signal_single_task_network,1.0,90.0,"[90, 77]",719,circle,1000.0,,go,359636,0.0,test_trial,AIQT0DPRTXYYD,1
500.0,500.0,<img class = center src='/static/experiments/stop_signal_single_task_network/images/stopSignal.png'></img>,go,,2000.0,,77.0,1.0,1.0,10.0,stop_signal_single_task_network,1.0,77.0,"[90, 77]",749,square,1000.0,,go,362139,0.0,test_trial,AIQT0DPRTXYYD,1
500.0,500.0,<img class = center src='/static/experiments/stop_signal_single_task_network/images/stopSignal.png'></img>,stop,,2000.0,,-1.0,1.0,1.0,11.0,stop_signal_single_task_network,,-1.0,"[90, 77]",-1,square,1000.0,1.0,stop,364645,0.0,test_trial,AIQT0DPRTXYYD,1
550.0,500.0,<img class = center src='/static/experiments/stop_signal_single_task_network/images/stopSignal.png'></img>,stop,,2000.0,,-1.0,1.0,1.0,12.0,stop_signal_single_task_network,,-1.0,"[90, 77]",-1,square,1000.0,1.0,stop,367151,0.0,test_trial,AIQT0DPRTXYYD,1
600.0,500.0,<img class = center src='/static/experiments/stop_signal_single_task_network/images/stopSignal.png'></img>,go,,2000.0,,77.0,1.0,1.0,13.0,stop_signal_single_task_network,1.0,77.0,"[90, 77]",714,square,1000.0,,go,369655,0.0,test_trial,AIQT0DPRTXYYD,1
600.0,500.0,<img class = center src='/static/experiments/stop_signal_single_task_network/images/stopSignal.png'></img>,go,,2000.0,,90.0,1.0,1.0,14.0,stop_signal_single_task_network,1.0,90.0,"[90, 77]",859,circle,1000.0,,go,372164,0.0,test_trial,AIQT0DPRTXYYD,1
600.0,500.0,<img class = center src='/static/experiments/stop_signal_single_task_network/images/stopSignal.png'></img>,stop,,2000.0,,-1.0,0.0,1.0,15.0,stop_signal_single_task_network,,77.0,"[90, 77]",718,square,1000.0,0.0,stop,374671,0.0,test_trial,AIQT0DPRTXYYD,0
550.0,500.0,<img class = center src='/static/experiments/stop_signal_single_task_network/images/stopSignal.png'></img>,go,,2000.0,,77.0,1.0,1.0,16.0,stop_signal_single_task_network,1.0,77.0,"[90, 77]",764,square,1000.0,,go,377178,0.0,test_trial,AIQT0DPRTXYYD,1
550.0,500.0,<img class = center src='/static/experiments/stop_signal_single_task_network/images/stopSignal.png'></img>,stop,,2000.0,,-1.0,1.0,1.0,17.0,stop_signal_single_task_network,,-1.0,"[90, 77]",-1,circle,1000.0,1.0,stop,379681,0.0,test_trial,AIQT0DPRTXYYD,1
600.0,500.0,<img class = center src='/static/experiments/stop_signal_single_task_network/images/stopSignal.png'></img>,go,,2000.0,,77.0,1.0,1.0,18.0,stop_signal_single_task_network,1.0,77.0,"[90, 77]",730,square,1000.0,,go,382184,0.0,test_trial,AIQT0DPRTXYYD,1
600.0,500.0,<img class = center src='/static/experiments/stop_signal_single_task_network/images/stopSignal.png'></img>,stop,,2000.0,,-1.0,1.0,1.0,19.0,stop_signal_single_task_network,,-1.0,"[90, 77]",-1,square,1000.0,1.0,stop,384688,0.0,test_trial,AIQT0DPRTXYYD,1
650.0,500.0,<img class = center src='/static/experiments/stop_signal_single_task_network/images/stopSignal.png'></img>,go,,2000.0,,77.0,1.0,1.0,20.0,stop_signal_single_task_network,1.0,77.0,"[90, 77]",705,square,1000.0,,go,387192,0.0,test_trial,AIQT0DPRTXYYD,1
650.0,500.0,<img class = center src='/static/experiments/stop_signal_single_task_network/images/stopSignal.png'></img>,go,,2000.0,,90.0,1.0,1.0,21.0,stop_signal_single_task_network,1.0,90.0,"[90, 77]",687,circle,1000.0,,go,389697,0.0,test_trial,AIQT0DPRTXYYD,1
650.0,500.0,<img class = center src='/static/experiments/stop_signal_single_task_network/images/stopSignal.png'></img>,stop,,2000.0,,-1.0,0.0,1.0,22.0,stop_signal_single_task_network,,77.0,"[90, 77]",813,square,1000.0,0.0,stop,392205,0.0,test_trial,AIQT0DPRTXYYD,0
600.0,500.0,<img class = center src='/static/experiments/stop_signal_single_task_network/images/stopSignal.png'></img>,go,,2000.0,,77.0,1.0,1.0,23.0,stop_signal_single_task_network,1.0,77.0,"[90, 77]",831,square,1000.0,,go,394712,0.0,test_trial,AIQT0DPRTXYYD,1
600.0,500.0,<img class = center src='/static/experiments/stop_signal_single_task_network/images/stopSignal.png'></img>,stop,,2000.0,,-1.0,0.0,1.0,24.0,stop_signal_single_task_network,,90.0,"[90, 77]",736,circle,1000.0,0.0,stop,397219,0.0,test_trial,AIQT0DPRTXYYD,0
550.0,500.0,<img class = center src='/static/experiments/stop_signal_single_task_network/images/stopSignal.png'></img>,stop,,2000.0,,-1.0,1.0,1.0,25.0,stop_signal_single_task_network,,-1.0,"[90, 77]",-1,circle,1000.0,1.0,stop,399723,0.0,test_trial,AIQT0DPRTXYYD,1
600.0,500.0,<img class = center src='/static/experiments/stop_signal_single_task_network/images/stopSignal.png'></img>,go,,2000.0,,77.0,1.0,1.0,26.0,stop_signal_single_task_network,1.0,77.0,"[90, 77]",850,square,1000.0,,go,402226,0.0,test_trial,AIQT0DPRTXYYD,1
600.0,500.0,<img class = center src='/static/experiments/stop_signal_single_task_network/images/stopSignal.png'></img>,stop,,2000.0,,-1.0,0.0,1.0,27.0,stop_signal_single_task_network,,90.0,"[90, 77]",716,circle,1000.0,0.0,stop,404730,0.0,test_trial,AIQT0DPRTXYYD,0
550.0,500.0,<img class = center src='/static/experiments/stop_signal_single_task_network/images/stopSignal.png'></img>,go,,2000.0,,90.0,1.0,1.0,28.0,stop_signal_single_task_network,1.0,90.0,"[90, 77]",688,circle,1000.0,,go,407237,0.0,test_trial,AIQT0DPRTXYYD,1
550.0,500.0,<img class = center src='/static/experiments/stop_signal_single_task_network/images/stopSignal.png'></img>,go,,2000.0,,77.0,1.0,1.0,29.0,stop_signal_single_task_network,1.0,77.0,"[90, 77]",777,square,1000.0,,go,409740,0.0,test_trial,AIQT0DPRTXYYD,1
550.0,500.0,<img class = center src='/static/experiments/stop_signal_single_task_network/images/stopSignal.png'></img>,go,,2000.0,,77.0,1.0,1.0,30.0,stop_signal_single_task_network,1.0,77.0,"[90, 77]",842,square,1000.0,,go,412245,0.0,test_trial,AIQT0DPRTXYYD,1
550.0,500.0,<img class = center src='/static/experiments/stop_signal_single_task_network/images/stopSignal.png'></img>,go,,2000.0,,77.0,1.0,1.0,31.0,stop_signal_single_task_network,1.0,77.0,"[90, 77]",739,square,1000.0,,go,414747,0.0,test_trial,AIQT0DPRTXYYD,1
550.0,500.0,<img class = center src='/static/experiments/stop_signal_single_task_network/images/stopSignal.png'></img>,go,,2000.0,,90.0,1.0,1.0,32.0,stop_signal_single_task_network,1.0,90.0,"[90, 77]",763,circle,1000.0,,go,417253,0.0,test_trial,AIQT0DPRTXYYD,1
550.0,500.0,<img class = center src='/static/experiments/stop_signal_single_task_network/images/stopSignal.png'></img>,stop,,2000.0,,-1.0,0.0,1.0,33.0,stop_signal_single_task_network,,90.0,"[90, 77]",694,circle,1000.0,0.0,stop,419759,0.0,test_trial,AIQT0DPRTXYYD,0
500.0,500.0,<img class = center src='/static/experiments/stop_signal_single_task_network/images/stopSignal.png'></img>,go,,2000.0,,77.0,1.0,1.0,34.0,stop_signal_single_task_network,1.0,77.0,"[90, 77]",841,square,1000.0,,go,422263,0.0,test_trial,AIQT0DPRTXYYD,1
500.0,500.0,<img class = center src='/static/experiments/stop_signal_single_task_network/images/stopSignal.png'></img>,stop,,2000.0,,-1.0,1.0,1.0,35.0,stop_signal_single_task_network,,-1.0,"[90, 77]",-1,circle,1000.0,1.0,stop,424767,0.0,test_trial,AIQT0DPRTXYYD,1
550.0,500.0,<img class = center src='/static/experiments/stop_signal_single_task_network/images/stopSignal.png'></img>,go,,2000.0,,90.0,1.0,1.0,36.0,stop_signal_single_task_network,1.0,90.0,"[90, 77]",745,circle,1000.0,,go,427271,0.0,test_trial,AIQT0DPRTXYYD,1
550.0,500.0,<img class = center src='/static/experiments/stop_signal_single_task_network/images/stopSignal.png'></img>,go,,2000.0,,90.0,1.0,1.0,37.0,stop_signal_single_task_network,1.0,90.0,"[90, 77]",975,circle,1000.0,,go,429778,0.0,test_trial,AIQT0DPRTXYYD,1
550.0,500.0,<img class = center src='/static/experiments/stop_signal_single_task_network/images/stopSignal.png'></img>,stop,,2000.0,,-1.0,0.0,1.0,38.0,stop_signal_single_task_network,,90.0,"[90, 77]",581,circle,1000.0,0.0,stop,432279,0.0,test_trial,AIQT0DPRTXYYD,0
500.0,500.0,<img class = center src='/static/experiments/stop_signal_single_task_network/images/stopSignal.png'></img>,stop,,2000.0,,-1.0,0.0,1.0,39.0,stop_signal_single_task_network,,77.0,"[90, 77]",699,square,1000.0,0.0,stop,434784,0.0,test_trial,AIQT0DPRTXYYD,0
450.0,500.0,<img class = center src='/static/experiments/stop_signal_single_task_network/images/stopSignal.png'></img>,stop,,2000.0,,-1.0,1.0,1.0,40.0,stop_signal_single_task_network,,-1.0,"[90, 77]",-1,square,1000.0,1.0,stop,437289,0.0,test_trial,AIQT0DPRTXYYD,1
500.0,500.0,<img class = center src='/static/experiments/stop_signal_single_task_network/images/stopSignal.png'></img>,go,,2000.0,,77.0,1.0,1.0,41.0,stop_signal_single_task_network,1.0,77.0,"[90, 77]",680,square,1000.0,,go,439792,0.0,test_trial,AIQT0DPRTXYYD,1
500.0,500.0,<img class = center src='/static/experiments/stop_signal_single_task_network/images/stopSignal.png'></img>,go,,2000.0,,90.0,1.0,1.0,42.0,stop_signal_single_task_network,1.0,90.0,"[90, 77]",734,circle,1000.0,,go,442298,0.0,test_trial,AIQT0DPRTXYYD,1
500.0,500.0,<img class = center src='/static/experiments/stop_signal_single_task_network/images/stopSignal.png'></img>,go,,2000.0,,77.0,1.0,1.0,43.0,stop_signal_single_task_network,1.0,77.0,"[90, 77]",757,square,1000.0,,go,444801,0.0,test_trial,AIQT0DPRTXYYD,1
500.0,500.0,<img class = center src='/static/experiments/stop_signal_single_task_network/images/stopSignal.png'></img>,go,,2000.0,,90.0,1.0,1.0,44.0,stop_signal_single_task_network,1.0,90.0,"[90, 77]",827,circle,1000.0,,go,447307,0.0,test_trial,AIQT0DPRTXYYD,1
500.0,500.0,<img class = center src='/static/experiments/stop_signal_single_task_network/images/stopSignal.png'></img>,go,,2000.0,,77.0,1.0,1.0,45.0,stop_signal_single_task_network,1.0,77.0,"[90, 77]",729,square,1000.0,,go,449811,0.0,test_trial,AIQT0DPRTXYYD,1
500.0,500.0,<img class = center src='/static/experiments/stop_signal_single_task_network/images/stopSignal.png'></img>,stop,,2000.0,,-1.0,0.0,1.0,46.0,stop_signal_single_task_network,,90.0,"[90, 77]",676,circle,1000.0,0.0,stop,452317,0.0,test_trial,AIQT0DPRTXYYD,0
450.0,500.0,<img class = center src='/static/experiments/stop_signal_single_task_network/images/stopSignal.png'></img>,go,,2000.0,,77.0,1.0,1.0,47.0,stop_signal_single_task_network,1.0,77.0,"[90, 77]",815,square,1000.0,,go,454820,0.0,test_trial,AIQT0DPRTXYYD,1
450.0,500.0,<img class = center src='/static/experiments/stop_signal_single_task_network/images/stopSignal.png'></img>,go,,2000.0,,90.0,1.0,1.0,48.0,stop_signal_single_task_network,1.0,90.0,"[90, 77]",891,circle,1000.0,,go,457327,0.0,test_trial,AIQT0DPRTXYYD,1
450.0,500.0,<img class = center src='/static/experiments/stop_signal_single_task_network/images/stopSignal.png'></img>,stop,,2000.0,,-1.0,0.0,2.0,1.0,stop_signal_single_task_network,,90.0,"[90, 77]",597,circle,1000.0,0.0,stop,466151,0.0,test_trial,AIQT0DPRTXYYD,0
400.0,500.0,<img class = center src='/static/experiments/stop_signal_single_task_network/images/stopSignal.png'></img>,stop,,2000.0,,-1.0,1.0,2.0,2.0,stop_signal_single_task_network,,-1.0,"[90, 77]",-1,circle,1000.0,1.0,stop,468655,0.0,test_trial,AIQT0DPRTXYYD,1
450.0,500.0,<img class = center src='/static/experiments/stop_signal_single_task_network/images/stopSignal.png'></img>,go,,2000.0,,90.0,1.0,2.0,3.0,stop_signal_single_task_network,1.0,90.0,"[90, 77]",678,circle,1000.0,,go,471159,0.0,test_trial,AIQT0DPRTXYYD,1
450.0,500.0,<img class = center src='/static/experiments/stop_signal_single_task_network/images/stopSignal.png'></img>,go,,2000.0,,77.0,1.0,2.0,4.0,stop_signal_single_task_network,1.0,77.0,"[90, 77]",690,square,1000.0,,go,473665,0.0,test_trial,AIQT0DPRTXYYD,1
450.0,500.0,<img class = center src='/static/experiments/stop_signal_single_task_network/images/stopSignal.png'></img>,go,,2000.0,,77.0,1.0,2.0,5.0,stop_signal_single_task_network,1.0,77.0,"[90, 77]",700,square,1000.0,,go,476173,0.0,test_trial,AIQT0DPRTXYYD,1
450.0,500.0,<img class = center src='/static/experiments/stop_signal_single_task_network/images/stopSignal.png'></img>,go,,2000.0,,77.0,1.0,2.0,6.0,stop_signal_single_task_network,1.0,77.0,"[90, 77]",697,square,1000.0,,go,478682,0.0,test_trial,AIQT0DPRTXYYD,1
450.0,500.0,<img class = center src='/static/experiments/stop_signal_single_task_network/images/stopSignal.png'></img>,go,,2000.0,,77.0,1.0,2.0,7.0,stop_signal_single_task_network,1.0,77.0,"[90, 77]",644,square,1000.0,,go,481191,0.0,test_trial,AIQT0DPRTXYYD,1
450.0,500.0,<img class = center src='/static/experiments/stop_signal_single_task_network/images/stopSignal.png'></img>,go,,2000.0,,90.0,1.0,2.0,8.0,stop_signal_single_task_network,1.0,90.0,"[90, 77]",694,circle,1000.0,,go,483697,0.0,test_trial,AIQT0DPRTXYYD,1
450.0,500.0,<img class = center src='/static/experiments/stop_signal_single_task_network/images/stopSignal.png'></img>,go,,2000.0,,90.0,1.0,2.0,9.0,stop_signal_single_task_network,1.0,90.0,"[90, 77]",600,circle,1000.0,,go,486206,0.0,test_trial,AIQT0DPRTXYYD,1
450.0,500.0,<img class = center src='/static/experiments/stop_signal_single_task_network/images/stopSignal.png'></img>,stop,,2000.0,,-1.0,0.0,2.0,10.0,stop_signal_single_task_network,,77.0,"[90, 77]",611,square,1000.0,0.0,stop,488712,0.0,test_trial,AIQT0DPRTXYYD,0
400.0,500.0,<img class = center src='/static/experiments/stop_signal_single_task_network/images/stopSignal.png'></img>,stop,,2000.0,,-1.0,1.0,2.0,11.0,stop_signal_single_task_network,,-1.0,"[90, 77]",-1,square,1000.0,1.0,stop,491216,0.0,test_trial,AIQT0DPRTXYYD,1
450.0,500.0,<img class = center src='/static/experiments/stop_signal_single_task_network/images/stopSignal.png'></img>,go,,2000.0,,90.0,1.0,2.0,12.0,stop_signal_single_task_network,1.0,90.0,"[90, 77]",768,circle,1000.0,,go,493721,0.0,test_trial,AIQT0DPRTXYYD,1
450.0,500.0,<img class = center src='/static/experiments/stop_signal_single_task_network/images/stopSignal.png'></img>,stop,,2000.0,,-1.0,1.0,2.0,13.0,stop_signal_single_task_network,,-1.0,"[90, 77]",-1,square,1000.0,1.0,stop,496226,0.0,test_trial,AIQT0DPRTXYYD,1
500.0,500.0,<img class = center src='/static/experiments/stop_signal_single_task_network/images/stopSignal.png'></img>,stop,,2000.0,,-1.0,1.0,2.0,14.0,stop_signal_single_task_network,,-1.0,"[90, 77]",-1,circle,1000.0,1.0,stop,498728,0.0,test_trial,AIQT0DPRTXYYD,1
550.0,500.0,<img class = center src='/static/experiments/stop_signal_single_task_network/images/stopSignal.png'></img>,go,,2000.0,,77.0,1.0,2.0,15.0,stop_signal_single_task_network,1.0,77.0,"[90, 77]",869,square,1000.0,,go,501233,0.0,test_trial,AIQT0DPRTXYYD,1
550.0,500.0,<img class = center src='/static/experiments/stop_signal_single_task_network/images/stopSignal.png'></img>,go,,2000.0,,77.0,1.0,2.0,16.0,stop_signal_single_task_network,1.0,77.0,"[90, 77]",811,square,1000.0,,go,503738,0.0,test_trial,AIQT0DPRTXYYD,1
550.0,500.0,<img class = center src='/static/experiments/stop_signal_single_task_network/images/stopSignal.png'></img>,stop,,2000.0,,-1.0,0.0,2.0,17.0,stop_signal_single_task_network,,77.0,"[90, 77]",730,square,1000.0,0.0,stop,506245,0.0,test_trial,AIQT0DPRTXYYD,0
500.0,500.0,<img class = center src='/static/experiments/stop_signal_single_task_network/images/stopSignal.png'></img>,go,,2000.0,,77.0,1.0,2.0,18.0,stop_signal_single_task_network,1.0,77.0,"[90, 77]",832,square,1000.0,,go,508748,0.0,test_trial,AIQT0DPRTXYYD,1
500.0,500.0,<img class = center src='/static/experiments/stop_signal_single_task_network/images/stopSignal.png'></img>,go,,2000.0,,77.0,1.0,2.0,19.0,stop_signal_single_task_network,1.0,77.0,"[90, 77]",878,square,1000.0,,go,511255,0.0,test_trial,AIQT0DPRTXYYD,1
500.0,500.0,<img class = center src='/static/experiments/stop_signal_single_task_network/images/stopSignal.png'></img>,go,,2000.0,,77.0,1.0,2.0,20.0,stop_signal_single_task_network,1.0,77.0,"[90, 77]",941,square,1000.0,,go,513761,0.0,test_trial,AIQT0DPRTXYYD,1
500.0,500.0,<img class = center src='/static/experiments/stop_signal_single_task_network/images/stopSignal.png'></img>,stop,,2000.0,,-1.0,1.0,2.0,21.0,stop_signal_single_task_network,,-1.0,"[90, 77]",-1,circle,1000.0,1.0,stop,516265,0.0,test_trial,AIQT0DPRTXYYD,1
550.0,500.0,<img class = center src='/static/experiments/stop_signal_single_task_network/images/stopSignal.png'></img>,go,,2000.0,,77.0,1.0,2.0,22.0,stop_signal_single_task_network,1.0,77.0,"[90, 77]",725,square,1000.0,,go,518771,0.0,test_trial,AIQT0DPRTXYYD,1
550.0,500.0,<img class = center src='/static/experiments/stop_signal_single_task_network/images/stopSignal.png'></img>,go,,2000.0,,90.0,1.0,2.0,23.0,stop_signal_single_task_network,1.0,90.0,"[90, 77]",677,circle,1000.0,,go,521278,0.0,test_trial,AIQT0DPRTXYYD,1
550.0,500.0,<img class = center src='/static/experiments/stop_signal_single_task_network/images/stopSignal.png'></img>,go,,2000.0,,77.0,1.0,2.0,24.0,stop_signal_single_task_network,1.0,77.0,"[90, 77]",831,square,1000.0,,go,523782,0.0,test_trial,AIQT0DPRTXYYD,1
550.0,500.0,<img class = center src='/static/experiments/stop_signal_single_task_network/images/stopSignal.png'></img>,stop,,2000.0,,-1.0,1.0,2.0,25.0,stop_signal_single_task_network,,-1.0,"[90, 77]",-1,square,1000.0,1.0,stop,526285,0.0,test_trial,AIQT0DPRTXYYD,1
600.0,500.0,<img class = center src='/static/experiments/stop_signal_single_task_network/images/stopSignal.png'></img>,go,,2000.0,,90.0,1.0,2.0,26.0,stop_signal_single_task_network,1.0,90.0,"[90, 77]",749,circle,1000.0,,go,528791,0.0,test_trial,AIQT0DPRTXYYD,1
600.0,500.0,<img class = center src='/static/experiments/stop_signal_single_task_network/images/stopSignal.png'></img>,go,,2000.0,,77.0,1.0,2.0,27.0,stop_signal_single_task_network,1.0,77.0,"[90, 77]",703,square,1000.0,,go,531295,0.0,test_trial,AIQT0DPRTXYYD,1
600.0,500.0,<img class = center src='/static/experiments/stop_signal_single_task_network/images/stopSignal.png'></img>,go,,2000.0,,77.0,1.0,2.0,28.0,stop_signal_single_task_network,1.0,77.0,"[90, 77]",757,square,1000.0,,go,533804,0.0,test_trial,AIQT0DPRTXYYD,1
600.0,500.0,<img class = center src='/static/experiments/stop_signal_single_task_network/images/stopSignal.png'></img>,go,,2000.0,,90.0,1.0,2.0,29.0,stop_signal_single_task_network,1.0,90.0,"[90, 77]",688,circle,1000.0,,go,536310,0.0,test_trial,AIQT0DPRTXYYD,1
600.0,500.0,<img class = center src='/static/experiments/stop_signal_single_task_network/images/stopSignal.png'></img>,go,,2000.0,,90.0,1.0,2.0,30.0,stop_signal_single_task_network,1.0,90.0,"[90, 77]",834,circle,1000.0,,go,538819,0.0,test_trial,AIQT0DPRTXYYD,1
600.0,500.0,<img class = center src='/static/experiments/stop_signal_single_task_network/images/stopSignal.png'></img>,go,,2000.0,,90.0,1.0,2.0,31.0,stop_signal_single_task_network,1.0,90.0,"[90, 77]",753,circle,1000.0,,go,541327,0.0,test_trial,AIQT0DPRTXYYD,1
600.0,500.0,<img class = center src='/static/experiments/stop_signal_single_task_network/images/stopSignal.png'></img>,stop,,2000.0,,-1.0,0.0,2.0,32.0,stop_signal_single_task_network,,77.0,"[90, 77]",677,square,1000.0,0.0,stop,543837,0.0,test_trial,AIQT0DPRTXYYD,0
550.0,500.0,<img class = center src='/static/experiments/stop_signal_single_task_network/images/stopSignal.png'></img>,stop,,2000.0,,-1.0,1.0,2.0,33.0,stop_signal_single_task_network,,-1.0,"[90, 77]",-1,circle,1000.0,1.0,stop,546350,0.0,test_trial,AIQT0DPRTXYYD,1
600.0,500.0,<img class = center src='/static/experiments/stop_signal_single_task_network/images/stopSignal.png'></img>,go,,2000.0,,90.0,1.0,2.0,34.0,stop_signal_single_task_network,1.0,90.0,"[90, 77]",638,circle,1000.0,,go,548855,0.0,test_trial,AIQT0DPRTXYYD,1
600.0,500.0,<img class = center src='/static/experiments/stop_signal_single_task_network/images/stopSignal.png'></img>,stop,,2000.0,,-1.0,0.0,2.0,35.0,stop_signal_single_task_network,,77.0,"[90, 77]",744,square,1000.0,0.0,stop,551360,0.0,test_trial,AIQT0DPRTXYYD,0
550.0,500.0,<img class = center src='/static/experiments/stop_signal_single_task_network/images/stopSignal.png'></img>,stop,,2000.0,,-1.0,1.0,2.0,36.0,stop_signal_single_task_network,,-1.0,"[90, 77]",-1,circle,1000.0,1.0,stop,553865,0.0,test_trial,AIQT0DPRTXYYD,1
600.0,500.0,<img class = center src='/static/experiments/stop_signal_single_task_network/images/stopSignal.png'></img>,go,,2000.0,,90.0,1.0,2.0,37.0,stop_signal_single_task_network,1.0,90.0,"[90, 77]",870,circle,1000.0,,go,556372,0.0,test_trial,AIQT0DPRTXYYD,1
600.0,500.0,<img class = center src='/static/experiments/stop_signal_single_task_network/images/stopSignal.png'></img>,stop,,2000.0,,-1.0,1.0,2.0,38.0,stop_signal_single_task_network,,-1.0,"[90, 77]",-1,circle,1000.0,1.0,stop,558879,0.0,test_trial,AIQT0DPRTXYYD,1
650.0,500.0,<img class = center src='/static/experiments/stop_signal_single_task_network/images/stopSignal.png'></img>,go,,2000.0,,77.0,1.0,2.0,39.0,stop_signal_single_task_network,1.0,77.0,"[90, 77]",853,square,1000.0,,go,561389,0.0,test_trial,AIQT0DPRTXYYD,1
650.0,500.0,<img class = center src='/static/experiments/stop_signal_single_task_network/images/stopSignal.png'></img>,go,,2000.0,,90.0,1.0,2.0,40.0,stop_signal_single_task_network,1.0,90.0,"[90, 77]",848,circle,1000.0,,go,563894,0.0,test_trial,AIQT0DPRTXYYD,1
650.0,500.0,<img class = center src='/static/experiments/stop_signal_single_task_network/images/stopSignal.png'></img>,go,,2000.0,,90.0,1.0,2.0,41.0,stop_signal_single_task_network,1.0,90.0,"[90, 77]",859,circle,1000.0,,go,566399,0.0,test_trial,AIQT0DPRTXYYD,1
650.0,500.0,<img class = center src='/static/experiments/stop_signal_single_task_network/images/stopSignal.png'></img>,go,,2000.0,,90.0,1.0,2.0,42.0,stop_signal_single_task_network,1.0,90.0,"[90, 77]",830,circle,1000.0,,go,568909,0.0,test_trial,AIQT0DPRTXYYD,1
650.0,500.0,<img class = center src='/static/experiments/stop_signal_single_task_network/images/stopSignal.png'></img>,go,,2000.0,,77.0,1.0,2.0,43.0,stop_signal_single_task_network,1.0,77.0,"[90, 77]",839,square,1000.0,,go,571413,0.0,test_trial,AIQT0DPRTXYYD,1
650.0,500.0,<img class = center src='/static/experiments/stop_signal_single_task_network/images/stopSignal.png'></img>,stop,,2000.0,,-1.0,0.0,2.0,44.0,stop_signal_single_task_network,,77.0,"[90, 77]",815,square,1000.0,0.0,stop,573916,0.0,test_trial,AIQT0DPRTXYYD,0
600.0,500.0,<img class = center src='/static/experiments/stop_signal_single_task_network/images/stopSignal.png'></img>,go,,2000.0,,90.0,1.0,2.0,45.0,stop_signal_single_task_network,1.0,90.0,"[90, 77]",874,circle,1000.0,,go,576424,0.0,test_trial,AIQT0DPRTXYYD,1
600.0,500.0,<img class = center src='/static/experiments/stop_signal_single_task_network/images/stopSignal.png'></img>,stop,,2000.0,,-1.0,1.0,2.0,46.0,stop_signal_single_task_network,,-1.0,"[90, 77]",-1,circle,1000.0,1.0,stop,578933,0.0,test_trial,AIQT0DPRTXYYD,1
650.0,500.0,<img class = center src='/static/experiments/stop_signal_single_task_network/images/stopSignal.png'></img>,go,,2000.0,,77.0,1.0,2.0,47.0,stop_signal_single_task_network,1.0,77.0,"[90, 77]",777,square,1000.0,,go,581442,0.0,test_trial,AIQT0DPRTXYYD,1
650.0,500.0,<img class = center src='/static/experiments/stop_signal_single_task_network/images/stopSignal.png'></img>,go,,2000.0,,90.0,1.0,2.0,48.0,stop_signal_single_task_network,1.0,90.0,"[90, 77]",836,circle,1000.0,,go,583947,0.0,test_trial,AIQT0DPRTXYYD,1
500.0,500.0,<img class = center src='/static/experiments/stop_signal_single_task_network/images/stopSignal.png'></img>,go,,2000.0,,90.0,1.0,0.0,1.0,stop_signal_single_task_network,1.0,90.0,"[90, 77]",695,circle,1000.0,,go,105018,0.0,test_trial,A3V1ZYXBJYCIIE,1
500.0,500.0,<img class = center src='/static/experiments/stop_signal_single_task_network/images/stopSignal.png'></img>,go,,2000.0,,90.0,1.0,0.0,2.0,stop_signal_single_task_network,1.0,90.0,"[90, 77]",604,circle,1000.0,,go,107524,0.0,test_trial,A3V1ZYXBJYCIIE,1
500.0,500.0,<img class = center src='/static/experiments/stop_signal_single_task_network/images/stopSignal.png'></img>,go,,2000.0,,77.0,1.0,0.0,3.0,stop_signal_single_task_network,1.0,77.0,"[90, 77]",613,square,1000.0,,go,110028,0.0,test_trial,A3V1ZYXBJYCIIE,1
500.0,500.0,<img class = center src='/static/experiments/stop_signal_single_task_network/images/stopSignal.png'></img>,stop,,2000.0,,-1.0,0.0,0.0,4.0,stop_signal_single_task_network,,77.0,"[90, 77]",620,square,1000.0,0.0,stop,112532,0.0,test_trial,A3V1ZYXBJYCIIE,0
450.0,500.0,<img class = center src='/static/experiments/stop_signal_single_task_network/images/stopSignal.png'></img>,go,,2000.0,,90.0,1.0,0.0,5.0,stop_signal_single_task_network,1.0,90.0,"[90, 77]",604,circle,1000.0,,go,115036,0.0,test_trial,A3V1ZYXBJYCIIE,1
450.0,500.0,<img class = center src='/static/experiments/stop_signal_single_task_network/images/stopSignal.png'></img>,go,,2000.0,,77.0,1.0,0.0,6.0,stop_signal_single_task_network,1.0,77.0,"[90, 77]",636,square,1000.0,,go,117548,0.0,test_trial,A3V1ZYXBJYCIIE,1
450.0,500.0,<img class = center src='/static/experiments/stop_signal_single_task_network/images/stopSignal.png'></img>,stop,,2000.0,,-1.0,0.0,0.0,7.0,stop_signal_single_task_network,,90.0,"[90, 77]",643,circle,1000.0,0.0,stop,120053,0.0,test_trial,A3V1ZYXBJYCIIE,0
400.0,500.0,<img class = center src='/static/experiments/stop_signal_single_task_network/images/stopSignal.png'></img>,stop,,2000.0,,-1.0,1.0,0.0,8.0,stop_signal_single_task_network,,-1.0,"[90, 77]",-1,circle,1000.0,1.0,stop,122559,0.0,test_trial,A3V1ZYXBJYCIIE,1
450.0,500.0,<img class = center src='/static/experiments/stop_signal_single_task_network/images/stopSignal.png'></img>,stop,,2000.0,,-1.0,0.0,0.0,9.0,stop_signal_single_task_network,,77.0,"[90, 77]",591,square,1000.0,0.0,stop,125064,0.0,test_trial,A3V1ZYXBJYCIIE,0
400.0,500.0,<img class = center src='/static/experiments/stop_signal_single_task_network/images/stopSignal.png'></img>,go,,2000.0,,90.0,1.0,0.0,10.0,stop_signal_single_task_network,1.0,90.0,"[90, 77]",471,circle,1000.0,,go,127570,0.0,test_trial,A3V1ZYXBJYCIIE,1
400.0,500.0,<img class = center src='/static/experiments/stop_signal_single_task_network/images/stopSignal.png'></img>,stop,,2000.0,,-1.0,0.0,0.0,11.0,stop_signal_single_task_network,,77.0,"[90, 77]",601,square,1000.0,0.0,stop,130080,0.0,test_trial,A3V1ZYXBJYCIIE,0
350.0,500.0,<img class = center src='/static/experiments/stop_signal_single_task_network/images/stopSignal.png'></img>,go,,2000.0,,90.0,1.0,0.0,12.0,stop_signal_single_task_network,1.0,90.0,"[90, 77]",640,circle,1000.0,,go,132584,0.0,test_trial,A3V1ZYXBJYCIIE,1
350.0,500.0,<img class = center src='/static/experiments/stop_signal_single_task_network/images/stopSignal.png'></img>,go,,2000.0,,90.0,1.0,0.0,13.0,stop_signal_single_task_network,1.0,90.0,"[90, 77]",677,circle,1000.0,,go,135090,0.0,test_trial,A3V1ZYXBJYCIIE,1
350.0,500.0,<img class = center src='/static/experiments/stop_signal_single_task_network/images/stopSignal.png'></img>,go,,2000.0,,77.0,1.0,0.0,14.0,stop_signal_single_task_network,1.0,77.0,"[90, 77]",685,square,1000.0,,go,137595,0.0,test_trial,A3V1ZYXBJYCIIE,1
350.0,500.0,<img class = center src='/static/experiments/stop_signal_single_task_network/images/stopSignal.png'></img>,go,,2000.0,,77.0,1.0,0.0,15.0,stop_signal_single_task_network,1.0,77.0,"[90, 77]",692,square,1000.0,,go,140099,0.0,test_trial,A3V1ZYXBJYCIIE,1
350.0,500.0,<img class = center src='/static/experiments/stop_signal_single_task_network/images/stopSignal.png'></img>,go,,2000.0,,90.0,1.0,0.0,16.0,stop_signal_single_task_network,1.0,90.0,"[90, 77]",731,circle,1000.0,,go,142605,0.0,test_trial,A3V1ZYXBJYCIIE,1
350.0,500.0,<img class = center src='/static/experiments/stop_signal_single_task_network/images/stopSignal.png'></img>,go,,2000.0,,77.0,0.0,0.0,17.0,stop_signal_single_task_network,0.0,90.0,"[90, 77]",711,square,1000.0,,go,145112,0.0,test_trial,A3V1ZYXBJYCIIE,0
350.0,500.0,<img class = center src='/static/experiments/stop_signal_single_task_network/images/stopSignal.png'></img>,go,,2000.0,,77.0,1.0,0.0,18.0,stop_signal_single_task_network,1.0,77.0,"[90, 77]",685,square,1000.0,,go,147618,0.0,test_trial,A3V1ZYXBJYCIIE,1
350.0,500.0,<img class = center src='/static/experiments/stop_signal_single_task_network/images/stopSignal.png'></img>,go,,2000.0,,77.0,1.0,0.0,19.0,stop_signal_single_task_network,1.0,77.0,"[90, 77]",756,square,1000.0,,go,150122,0.0,test_trial,A3V1ZYXBJYCIIE,1
350.0,500.0,<img class = center src='/static/experiments/stop_signal_single_task_network/images/stopSignal.png'></img>,stop,,2000.0,,-1.0,1.0,0.0,20.0,stop_signal_single_task_network,,-1.0,"[90, 77]",-1,square,1000.0,1.0,stop,152626,0.0,test_trial,A3V1ZYXBJYCIIE,1
400.0,500.0,<img class = center src='/static/experiments/stop_signal_single_task_network/images/stopSignal.png'></img>,go,,2000.0,,90.0,1.0,0.0,21.0,stop_signal_single_task_network,1.0,90.0,"[90, 77]",644,circle,1000.0,,go,155131,0.0,test_trial,A3V1ZYXBJYCIIE,1
400.0,500.0,<img class = center src='/static/experiments/stop_signal_single_task_network/images/stopSignal.png'></img>,stop,,2000.0,,-1.0,0.0,0.0,22.0,stop_signal_single_task_network,,77.0,"[90, 77]",1164,square,1000.0,0.0,stop,157635,0.0,test_trial,A3V1ZYXBJYCIIE,0
350.0,500.0,<img class = center src='/static/experiments/stop_signal_single_task_network/images/stopSignal.png'></img>,go,,2000.0,,90.0,1.0,0.0,23.0,stop_signal_single_task_network,1.0,90.0,"[90, 77]",691,circle,1000.0,,go,160141,0.0,test_trial,A3V1ZYXBJYCIIE,1
350.0,500.0,<img class = center src='/static/experiments/stop_signal_single_task_network/images/stopSignal.png'></img>,go,,2000.0,,77.0,1.0,0.0,24.0,stop_signal_single_task_network,1.0,77.0,"[90, 77]",856,square,1000.0,,go,162647,0.0,test_trial,A3V1ZYXBJYCIIE,1
350.0,500.0,<img class = center src='/static/experiments/stop_signal_single_task_network/images/stopSignal.png'></img>,go,,2000.0,,77.0,1.0,0.0,25.0,stop_signal_single_task_network,1.0,77.0,"[90, 77]",1055,square,1000.0,,go,165153,0.0,test_trial,A3V1ZYXBJYCIIE,1
350.0,500.0,<img class = center src='/static/experiments/stop_signal_single_task_network/images/stopSignal.png'></img>,go,,2000.0,,90.0,1.0,0.0,26.0,stop_signal_single_task_network,1.0,90.0,"[90, 77]",1094,circle,1000.0,,go,167657,0.0,test_trial,A3V1ZYXBJYCIIE,1
350.0,500.0,<img class = center src='/static/experiments/stop_signal_single_task_network/images/stopSignal.png'></img>,stop,,2000.0,,-1.0,1.0,0.0,27.0,stop_signal_single_task_network,,-1.0,"[90, 77]",-1,circle,1000.0,1.0,stop,170161,0.0,test_trial,A3V1ZYXBJYCIIE,1
400.0,500.0,<img class = center src='/static/experiments/stop_signal_single_task_network/images/stopSignal.png'></img>,stop,,2000.0,,-1.0,1.0,0.0,28.0,stop_signal_single_task_network,,-1.0,"[90, 77]",-1,square,1000.0,1.0,stop,172666,0.0,test_trial,A3V1ZYXBJYCIIE,1
450.0,500.0,<img class = center src='/static/experiments/stop_signal_single_task_network/images/stopSignal.png'></img>,go,,2000.0,,90.0,1.0,0.0,29.0,stop_signal_single_task_network,1.0,90.0,"[90, 77]",646,circle,1000.0,,go,175170,0.0,test_trial,A3V1ZYXBJYCIIE,1
450.0,500.0,<img class = center src='/static/experiments/stop_signal_single_task_network/images/stopSignal.png'></img>,go,,2000.0,,90.0,1.0,0.0,30.0,stop_signal_single_task_network,1.0,90.0,"[90, 77]",750,circle,1000.0,,go,177675,0.0,test_trial,A3V1ZYXBJYCIIE,1
450.0,500.0,<img class = center src='/static/experiments/stop_signal_single_task_network/images/stopSignal.png'></img>,stop,,2000.0,,-1.0,0.0,0.0,31.0,stop_signal_single_task_network,,90.0,"[90, 77]",564,circle,1000.0,0.0,stop,180180,0.0,test_trial,A3V1ZYXBJYCIIE,0
400.0,500.0,<img class = center src='/static/experiments/stop_signal_single_task_network/images/stopSignal.png'></img>,go,,2000.0,,90.0,1.0,0.0,32.0,stop_signal_single_task_network,1.0,90.0,"[90, 77]",667,circle,1000.0,,go,182684,0.0,test_trial,A3V1ZYXBJYCIIE,1
400.0,500.0,<img class = center src='/static/experiments/stop_signal_single_task_network/images/stopSignal.png'></img>,stop,,2000.0,,-1.0,1.0,0.0,33.0,stop_signal_single_task_network,,-1.0,"[90, 77]",-1,circle,1000.0,1.0,stop,185189,0.0,test_trial,A3V1ZYXBJYCIIE,1
450.0,500.0,<img class = center src='/static/experiments/stop_signal_single_task_network/images/stopSignal.png'></img>,go,,2000.0,,90.0,1.0,0.0,34.0,stop_signal_single_task_network,1.0,90.0,"[90, 77]",618,circle,1000.0,,go,187693,0.0,test_trial,A3V1ZYXBJYCIIE,1
450.0,500.0,<img class = center src='/static/experiments/stop_signal_single_task_network/images/stopSignal.png'></img>,stop,,2000.0,,-1.0,0.0,0.0,35.0,stop_signal_single_task_network,,90.0,"[90, 77]",593,circle,1000.0,0.0,stop,190199,0.0,test_trial,A3V1ZYXBJYCIIE,0
400.0,500.0,<img class = center src='/static/experiments/stop_signal_single_task_network/images/stopSignal.png'></img>,go,,2000.0,,77.0,1.0,0.0,36.0,stop_signal_single_task_network,1.0,77.0,"[90, 77]",758,square,1000.0,,go,192704,0.0,test_trial,A3V1ZYXBJYCIIE,1
400.0,500.0,<img class = center src='/static/experiments/stop_signal_single_task_network/images/stopSignal.png'></img>,go,,2000.0,,90.0,1.0,0.0,37.0,stop_signal_single_task_network,1.0,90.0,"[90, 77]",859,circle,1000.0,,go,195212,0.0,test_trial,A3V1ZYXBJYCIIE,1
400.0,500.0,<img class = center src='/static/experiments/stop_signal_single_task_network/images/stopSignal.png'></img>,go,,2000.0,,90.0,1.0,0.0,38.0,stop_signal_single_task_network,1.0,90.0,"[90, 77]",746,circle,1000.0,,go,197717,0.0,test_trial,A3V1ZYXBJYCIIE,1
400.0,500.0,<img class = center src='/static/experiments/stop_signal_single_task_network/images/stopSignal.png'></img>,stop,,2000.0,,-1.0,1.0,0.0,39.0,stop_signal_single_task_network,,-1.0,"[90, 77]",-1,circle,1000.0,1.0,stop,200222,0.0,test_trial,A3V1ZYXBJYCIIE,1
450.0,500.0,<img class = center src='/static/experiments/stop_signal_single_task_network/images/stopSignal.png'></img>,stop,,2000.0,,-1.0,1.0,0.0,40.0,stop_signal_single_task_network,,-1.0,"[90, 77]",-1,square,1000.0,1.0,stop,202726,0.0,test_trial,A3V1ZYXBJYCIIE,1
500.0,500.0,<img class = center src='/static/experiments/stop_signal_single_task_network/images/stopSignal.png'></img>,stop,,2000.0,,-1.0,0.0,0.0,41.0,stop_signal_single_task_network,,77.0,"[90, 77]",545,square,1000.0,0.0,stop,205231,0.0,test_trial,A3V1ZYXBJYCIIE,0
450.0,500.0,<img class = center src='/static/experiments/stop_signal_single_task_network/images/stopSignal.png'></img>,go,,2000.0,,77.0,1.0,0.0,42.0,stop_signal_single_task_network,1.0,77.0,"[90, 77]",679,square,1000.0,,go,207736,0.0,test_trial,A3V1ZYXBJYCIIE,1
450.0,500.0,<img class = center src='/static/experiments/stop_signal_single_task_network/images/stopSignal.png'></img>,go,,2000.0,,77.0,1.0,0.0,43.0,stop_signal_single_task_network,1.0,77.0,"[90, 77]",559,square,1000.0,,go,210240,0.0,test_trial,A3V1ZYXBJYCIIE,1
450.0,500.0,<img class = center src='/static/experiments/stop_signal_single_task_network/images/stopSignal.png'></img>,go,,2000.0,,77.0,1.0,0.0,44.0,stop_signal_single_task_network,1.0,77.0,"[90, 77]",694,square,1000.0,,go,212745,0.0,test_trial,A3V1ZYXBJYCIIE,1
450.0,500.0,<img class = center src='/static/experiments/stop_signal_single_task_network/images/stopSignal.png'></img>,stop,,2000.0,,-1.0,1.0,0.0,45.0,stop_signal_single_task_network,,-1.0,"[90, 77]",-1,circle,1000.0,1.0,stop,215250,0.0,test_trial,A3V1ZYXBJYCIIE,1
500.0,500.0,<img class = center src='/static/experiments/stop_signal_single_task_network/images/stopSignal.png'></img>,go,,2000.0,,77.0,1.0,0.0,46.0,stop_signal_single_task_network,1.0,77.0,"[90, 77]",708,square,1000.0,,go,217754,0.0,test_trial,A3V1ZYXBJYCIIE,1
500.0,500.0,<img class = center src='/static/experiments/stop_signal_single_task_network/images/stopSignal.png'></img>,go,,2000.0,,77.0,1.0,0.0,47.0,stop_signal_single_task_network,1.0,77.0,"[90, 77]",712,square,1000.0,,go,220261,0.0,test_trial,A3V1ZYXBJYCIIE,1
500.0,500.0,<img class = center src='/static/experiments/stop_signal_single_task_network/images/stopSignal.png'></img>,go,,2000.0,,77.0,1.0,0.0,48.0,stop_signal_single_task_network,1.0,77.0,"[90, 77]",751,square,1000.0,,go,222766,0.0,test_trial,A3V1ZYXBJYCIIE,1
500.0,500.0,<img class = center src='/static/experiments/stop_signal_single_task_network/images/stopSignal.png'></img>,stop,,2000.0,,-1.0,0.0,1.0,1.0,stop_signal_single_task_network,,90.0,"[90, 77]",662,circle,1000.0,0.0,stop,237017,0.0,test_trial,A3V1ZYXBJYCIIE,0
450.0,500.0,<img class = center src='/static/experiments/stop_signal_single_task_network/images/stopSignal.png'></img>,go,,2000.0,,90.0,1.0,1.0,2.0,stop_signal_single_task_network,1.0,90.0,"[90, 77]",575,circle,1000.0,,go,239521,0.0,test_trial,A3V1ZYXBJYCIIE,1
450.0,500.0,<img class = center src='/static/experiments/stop_signal_single_task_network/images/stopSignal.png'></img>,stop,,2000.0,,-1.0,1.0,1.0,3.0,stop_signal_single_task_network,,-1.0,"[90, 77]",-1,square,1000.0,1.0,stop,242026,0.0,test_trial,A3V1ZYXBJYCIIE,1
500.0,500.0,<img class = center src='/static/experiments/stop_signal_single_task_network/images/stopSignal.png'></img>,go,,2000.0,,77.0,1.0,1.0,4.0,stop_signal_single_task_network,1.0,77.0,"[90, 77]",846,square,1000.0,,go,244530,0.0,test_trial,A3V1ZYXBJYCIIE,1
500.0,500.0,<img class = center src='/static/experiments/stop_signal_single_task_network/images/stopSignal.png'></img>,go,,2000.0,,90.0,1.0,1.0,5.0,stop_signal_single_task_network,1.0,90.0,"[90, 77]",757,circle,1000.0,,go,247034,0.0,test_trial,A3V1ZYXBJYCIIE,1
500.0,500.0,<img class = center src='/static/experiments/stop_signal_single_task_network/images/stopSignal.png'></img>,go,,2000.0,,77.0,1.0,1.0,6.0,stop_signal_single_task_network,1.0,77.0,"[90, 77]",732,square,1000.0,,go,249539,0.0,test_trial,A3V1ZYXBJYCIIE,1
500.0,500.0,<img class = center src='/static/experiments/stop_signal_single_task_network/images/stopSignal.png'></img>,go,,2000.0,,77.0,1.0,1.0,7.0,stop_signal_single_task_network,1.0,77.0,"[90, 77]",708,square,1000.0,,go,252044,0.0,test_trial,A3V1ZYXBJYCIIE,1
500.0,500.0,<img class = center src='/static/experiments/stop_signal_single_task_network/images/stopSignal.png'></img>,go,,2000.0,,77.0,1.0,1.0,8.0,stop_signal_single_task_network,1.0,77.0,"[90, 77]",715,square,1000.0,,go,254548,0.0,test_trial,A3V1ZYXBJYCIIE,1
500.0,500.0,<img class = center src='/static/experiments/stop_signal_single_task_network/images/stopSignal.png'></img>,go,,2000.0,,90.0,1.0,1.0,9.0,stop_signal_single_task_network,1.0,90.0,"[90, 77]",660,circle,1000.0,,go,257052,0.0,test_trial,A3V1ZYXBJYCIIE,1
500.0,500.0,<img class = center src='/static/experiments/stop_signal_single_task_network/images/stopSignal.png'></img>,go,,2000.0,,77.0,1.0,1.0,10.0,stop_signal_single_task_network,1.0,77.0,"[90, 77]",699,square,1000.0,,go,259556,0.0,test_trial,A3V1ZYXBJYCIIE,1
500.0,500.0,<img class = center src='/static/experiments/stop_signal_single_task_network/images/stopSignal.png'></img>,go,,2000.0,,77.0,1.0,1.0,11.0,stop_signal_single_task_network,1.0,77.0,"[90, 77]",866,square,1000.0,,go,262061,0.0,test_trial,A3V1ZYXBJYCIIE,1
500.0,500.0,<img class = center src='/static/experiments/stop_signal_single_task_network/images/stopSignal.png'></img>,stop,,2000.0,,-1.0,1.0,1.0,12.0,stop_signal_single_task_network,,-1.0,"[90, 77]",-1,square,1000.0,1.0,stop,264565,0.0,test_trial,A3V1ZYXBJYCIIE,1
550.0,500.0,<img class = center src='/static/experiments/stop_signal_single_task_network/images/stopSignal.png'></img>,go,,2000.0,,90.0,1.0,1.0,13.0,stop_signal_single_task_network,1.0,90.0,"[90, 77]",600,circle,1000.0,,go,267070,0.0,test_trial,A3V1ZYXBJYCIIE,1
550.0,500.0,<img class = center src='/static/experiments/stop_signal_single_task_network/images/stopSignal.png'></img>,stop,,2000.0,,-1.0,0.0,1.0,14.0,stop_signal_single_task_network,,90.0,"[90, 77]",704,circle,1000.0,0.0,stop,269576,0.0,test_trial,A3V1ZYXBJYCIIE,0
500.0,500.0,<img class = center src='/static/experiments/stop_signal_single_task_network/images/stopSignal.png'></img>,go,,2000.0,,90.0,1.0,1.0,15.0,stop_signal_single_task_network,1.0,90.0,"[90, 77]",676,circle,1000.0,,go,272082,0.0,test_trial,A3V1ZYXBJYCIIE,1
500.0,500.0,<img class = center src='/static/experiments/stop_signal_single_task_network/images/stopSignal.png'></img>,go,,2000.0,,77.0,1.0,1.0,16.0,stop_signal_single_task_network,1.0,77.0,"[90, 77]",653,square,1000.0,,go,274586,0.0,test_trial,A3V1ZYXBJYCIIE,1
500.0,500.0,<img class = center src='/static/experiments/stop_signal_single_task_network/images/stopSignal.png'></img>,stop,,2000.0,,-1.0,0.0,1.0,17.0,stop_signal_single_task_network,,77.0,"[90, 77]",596,square,1000.0,0.0,stop,277090,0.0,test_trial,A3V1ZYXBJYCIIE,0
450.0,500.0,<img class = center src='/static/experiments/stop_signal_single_task_network/images/stopSignal.png'></img>,go,,2000.0,,90.0,1.0,1.0,18.0,stop_signal_single_task_network,1.0,90.0,"[90, 77]",604,circle,1000.0,,go,279595,0.0,test_trial,A3V1ZYXBJYCIIE,1
450.0,500.0,<img class = center src='/static/experiments/stop_signal_single_task_network/images/stopSignal.png'></img>,go,,2000.0,,90.0,1.0,1.0,19.0,stop_signal_single_task_network,1.0,90.0,"[90, 77]",612,circle,1000.0,,go,282099,0.0,test_trial,A3V1ZYXBJYCIIE,1
450.0,500.0,<img class = center src='/static/experiments/stop_signal_single_task_network/images/stopSignal.png'></img>,stop,,2000.0,,-1.0,0.0,1.0,20.0,stop_signal_single_task_network,,90.0,"[90, 77]",523,circle,1000.0,0.0,stop,284603,0.0,test_trial,A3V1ZYXBJYCIIE,0
400.0,500.0,<img class = center src='/static/experiments/stop_signal_single_task_network/images/stopSignal.png'></img>,go,,2000.0,,90.0,1.0,1.0,21.0,stop_signal_single_task_network,1.0,90.0,"[90, 77]",594,circle,1000.0,,go,287107,0.0,test_trial,A3V1ZYXBJYCIIE,1
400.0,500.0,<img class = center src='/static/experiments/stop_signal_single_task_network/images/stopSignal.png'></img>,stop,,2000.0,,-1.0,0.0,1.0,22.0,stop_signal_single_task_network,,77.0,"[90, 77]",826,square,1000.0,0.0,stop,289612,0.0,test_trial,A3V1ZYXBJYCIIE,0
350.0,500.0,<img class = center src='/static/experiments/stop_signal_single_task_network/images/stopSignal.png'></img>,stop,,2000.0,,-1.0,1.0,1.0,23.0,stop_signal_single_task_network,,-1.0,"[90, 77]",-1,square,1000.0,1.0,stop,292119,0.0,test_trial,A3V1ZYXBJYCIIE,1
400.0,500.0,<img class = center src='/static/experiments/stop_signal_single_task_network/images/stopSignal.png'></img>,go,,2000.0,,90.0,1.0,1.0,24.0,stop_signal_single_task_network,1.0,90.0,"[90, 77]",681,circle,1000.0,,go,294623,0.0,test_trial,A3V1ZYXBJYCIIE,1
400.0,500.0,<img class = center src='/static/experiments/stop_signal_single_task_network/images/stopSignal.png'></img>,go,,2000.0,,77.0,1.0,1.0,25.0,stop_signal_single_task_network,1.0,77.0,"[90, 77]",656,square,1000.0,,go,297127,0.0,test_trial,A3V1ZYXBJYCIIE,1
400.0,500.0,<img class = center src='/static/experiments/stop_signal_single_task_network/images/stopSignal.png'></img>,go,,2000.0,,77.0,1.0,1.0,26.0,stop_signal_single_task_network,1.0,77.0,"[90, 77]",696,square,1000.0,,go,299631,0.0,test_trial,A3V1ZYXBJYCIIE,1
400.0,500.0,<img class = center src='/static/experiments/stop_signal_single_task_network/images/stopSignal.png'></img>,stop,,2000.0,,-1.0,0.0,1.0,27.0,stop_signal_single_task_network,,77.0,"[90, 77]",1152,square,1000.0,0.0,stop,302135,0.0,test_trial,A3V1ZYXBJYCIIE,0
350.0,500.0,<img class = center src='/static/experiments/stop_signal_single_task_network/images/stopSignal.png'></img>,stop,,2000.0,,-1.0,1.0,1.0,28.0,stop_signal_single_task_network,,-1.0,"[90, 77]",-1,circle,1000.0,1.0,stop,304639,0.0,test_trial,A3V1ZYXBJYCIIE,1
400.0,500.0,<img class = center src='/static/experiments/stop_signal_single_task_network/images/stopSignal.png'></img>,stop,,2000.0,,-1.0,1.0,1.0,29.0,stop_signal_single_task_network,,-1.0,"[90, 77]",-1,circle,1000.0,1.0,stop,307148,0.0,test_trial,A3V1ZYXBJYCIIE,1
450.0,500.0,<img class = center src='/static/experiments/stop_signal_single_task_network/images/stopSignal.png'></img>,go,,2000.0,,90.0,1.0,1.0,30.0,stop_signal_single_task_network,1.0,90.0,"[90, 77]",696,circle,1000.0,,go,309655,0.0,test_trial,A3V1ZYXBJYCIIE,1
450.0,500.0,<img class = center src='/static/experiments/stop_signal_single_task_network/images/stopSignal.png'></img>,go,,2000.0,,90.0,1.0,1.0,31.0,stop_signal_single_task_network,1.0,90.0,"[90, 77]",637,circle,1000.0,,go,312160,0.0,test_trial,A3V1ZYXBJYCIIE,1
450.0,500.0,<img class = center src='/static/experiments/stop_signal_single_task_network/images/stopSignal.png'></img>,stop,,2000.0,,-1.0,0.0,1.0,32.0,stop_signal_single_task_network,,90.0,"[90, 77]",454,circle,1000.0,0.0,stop,314665,0.0,test_trial,A3V1ZYXBJYCIIE,0
400.0,500.0,<img class = center src='/static/experiments/stop_signal_single_task_network/images/stopSignal.png'></img>,go,,2000.0,,77.0,1.0,1.0,33.0,stop_signal_single_task_network,1.0,77.0,"[90, 77]",781,square,1000.0,,go,317171,0.0,test_trial,A3V1ZYXBJYCIIE,1
400.0,500.0,<img class = center src='/static/experiments/stop_signal_single_task_network/images/stopSignal.png'></img>,stop,,2000.0,,-1.0,1.0,1.0,34.0,stop_signal_single_task_network,,-1.0,"[90, 77]",-1,circle,1000.0,1.0,stop,319678,0.0,test_trial,A3V1ZYXBJYCIIE,1
450.0,500.0,<img class = center src='/static/experiments/stop_signal_single_task_network/images/stopSignal.png'></img>,go,,2000.0,,90.0,1.0,1.0,35.0,stop_signal_single_task_network,1.0,90.0,"[90, 77]",695,circle,1000.0,,go,322184,0.0,test_trial,A3V1ZYXBJYCIIE,1
450.0,500.0,<img class = center src='/static/experiments/stop_signal_single_task_network/images/stopSignal.png'></img>,stop,,2000.0,,-1.0,1.0,1.0,36.0,stop_signal_single_task_network,,-1.0,"[90, 77]",-1,square,1000.0,1.0,stop,324689,0.0,test_trial,A3V1ZYXBJYCIIE,1
500.0,500.0,<img class = center src='/static/experiments/stop_signal_single_task_network/images/stopSignal.png'></img>,go,,2000.0,,90.0,1.0,1.0,37.0,stop_signal_single_task_network,1.0,90.0,"[90, 77]",709,circle,1000.0,,go,327193,0.0,test_trial,A3V1ZYXBJYCIIE,1
500.0,500.0,<img class = center src='/static/experiments/stop_signal_single_task_network/images/stopSignal.png'></img>,go,,2000.0,,77.0,1.0,1.0,38.0,stop_signal_single_task_network,1.0,77.0,"[90, 77]",1068,square,1000.0,,go,329698,0.0,test_trial,A3V1ZYXBJYCIIE,1
500.0,500.0,<img class = center src='/static/experiments/stop_signal_single_task_network/images/stopSignal.png'></img>,go,,2000.0,,77.0,1.0,1.0,39.0,stop_signal_single_task_network,1.0,77.0,"[90, 77]",1043,square,1000.0,,go,332203,0.0,test_trial,A3V1ZYXBJYCIIE,1
500.0,500.0,<img class = center src='/static/experiments/stop_signal_single_task_network/images/stopSignal.png'></img>,stop,,2000.0,,-1.0,1.0,1.0,40.0,stop_signal_single_task_network,,-1.0,"[90, 77]",-1,square,1000.0,1.0,stop,334707,0.0,test_trial,A3V1ZYXBJYCIIE,1
550.0,500.0,<img class = center src='/static/experiments/stop_signal_single_task_network/images/stopSignal.png'></img>,go,,2000.0,,77.0,1.0,1.0,41.0,stop_signal_single_task_network,1.0,77.0,"[90, 77]",777,square,1000.0,,go,337213,0.0,test_trial,A3V1ZYXBJYCIIE,1
550.0,500.0,<img class = center src='/static/experiments/stop_signal_single_task_network/images/stopSignal.png'></img>,go,,2000.0,,90.0,1.0,1.0,42.0,stop_signal_single_task_network,1.0,90.0,"[90, 77]",999,circle,1000.0,,go,339719,0.0,test_trial,A3V1ZYXBJYCIIE,1
550.0,500.0,<img class = center src='/static/experiments/stop_signal_single_task_network/images/stopSignal.png'></img>,go,,2000.0,,90.0,1.0,1.0,43.0,stop_signal_single_task_network,1.0,90.0,"[90, 77]",694,circle,1000.0,,go,342223,0.0,test_trial,A3V1ZYXBJYCIIE,1
