worker_id,current_block,stop_signal_condition,SS_delay,correct_response,key_press,correct_trial,rt
A3QAHF4UUBM7ZO,0,go,250,90,90,1,622
A3QAHF4UUBM7ZO,0,go,250,77,77,1,519
A3QAHF4UUBM7ZO,0,go,250,77,77,1,491
A3QAHF4UUBM7ZO,0,go,250,77,77,1,389
A3QAHF4UUBM7ZO,0,go,250,77,77,1,314
A3QAHF4UUBM7ZO,0,go,250,90,77,0,405
A3QAHF4UUBM7ZO,0,stop,250,-1,90,0,460
A3QAHF4UUBM7ZO,0,stop,200,-1,-1,1,-1
A3QAHF4UUBM7ZO,0,go,250,90,90,1,462
A3QAHF4UUBM7ZO,0,go,250,77,77,1,583
A3QAHF4UUBM7ZO,0,go,250,77,77,1,786
A3QAHF4UUBM7ZO,0,go,250,77,77,1,462
A3QAHF4UUBM7ZO,0,stop,250,-1,-1,1,-1
A3QAHF4UUBM7ZO,0,stop,300,-1,-1,1,-1
A3QAHF4UUBM7ZO,0,go,350,77,77,1,718
A3QAHF4UUBM7ZO,0,go,350,90,90,1,696
A3QAHF4UUBM7ZO,0,go,350,90,90,1,565
A3QAHF4UUBM7ZO,0,go,350,77,77,1,544
A3QAHF4UUBM7ZO,0,go,350,90,90,1,544
A3QAHF4UUBM7ZO,0,stop,350,-1,90,0,695
A3QAHF4UUBM7ZO,0,go,300,77,77,1,614
A3QAHF4UUBM7ZO,0,stop,300,-1,-1,1,-1
A3QAHF4UUBM7ZO,0,go,350,90,77,0,651
A3QAHF4UUBM7ZO,0,go,350,90,90,1,628
A3QAHF4UUBM7ZO,0,go,350,77,77,1,415
A3QAHF4UUBM7ZO,0,stop,350,-1,90,0,464
A3QAHF4UUBM7ZO,0,go,300,90,90,1,752
A3QAHF4UUBM7ZO,0,go,300,90,90,1,748
A3QAHF4UUBM7ZO,0,stop,300,-1,-1,1,-1
A3QAHF4UUBM7ZO,0,stop,350,-1,77,0,566
A3QAHF4UUBM7ZO,0,stop,300,-1,77,0,497
A3QAHF4UUBM7ZO,0,go,250,90,90,1,575
A3QAHF4UUBM7ZO,0,stop,250,-1,-1,1,-1
A3QAHF4UUBM7ZO,0,go,300,90,90,1,606
A3QAHF4UUBM7ZO,0,go,300,90,90,1,479
A3QAHF4UUBM7ZO,0,go,300,90,90,1,546
A3QAHF4UUBM7ZO,0,go,300,77,77,1,556
A3QAHF4UUBM7ZO,0,go,300,77,77,1,479
A3QAHF4UUBM7ZO,0,go,300,77,77,1,400
A3QAHF4UUBM7ZO,0,stop,300,-1,77,0,429
A3QAHF4UUBM7ZO,0,stop,250,-1,90,0,411
A3QAHF4UUBM7ZO,0,go,200,77,77,1,672
A3QAHF4UUBM7ZO,0,stop,200,-1,-1,1,-1
A3QAHF4UUBM7ZO,0,stop,250,-1,90,0,520
A3QAHF4UUBM7ZO,0,go,200,90,90,1,477
A3QAHF4UUBM7ZO,0,stop,200,-1,-1,1,-1
A3QAHF4UUBM7ZO,0,go,250,77,77,1,584
A3QAHF4UUBM7ZO,0,go,250,90,90,1,713
A3QAHF4UUBM7ZO,1,stop,250,-1,-1,1,-1
A3QAHF4UUBM7ZO,1,go,300,90,90,1,658
A3QAHF4UUBM7ZO,1,go,300,77,77,1,583
A3QAHF4UUBM7ZO,1,go,300,90,77,0,630
A3QAHF4UUBM7ZO,1,go,300,90,90,1,499
A3QAHF4UUBM7ZO,1,go,300,77,77,1,618
A3QAHF4UUBM7ZO,1,go,300,90,90,1,682
A3QAHF4UUBM7ZO,1,stop,300,-1,77,0,539
A3QAHF4UUBM7ZO,1,stop,250,-1,-1,1,-1
A3QAHF4UUBM7ZO,1,go,300,90,90,1,750
A3QAHF4UUBM7ZO,1,go,300,90,90,1,632
A3QAHF4UUBM7ZO,1,stop,300,-1,-1,1,-1
A3QAHF4UUBM7ZO,1,stop,350,-1,90,0,413
A3QAHF4UUBM7ZO,1,go,300,77,77,1,634
A3QAHF4UUBM7ZO,1,go,300,90,90,1,738
A3QAHF4UUBM7ZO,1,stop,300,-1,-1,1,-1
A3QAHF4UUBM7ZO,1,go,350,77,77,1,522
A3QAHF4UUBM7ZO,1,go,350,77,77,1,525
A3QAHF4UUBM7ZO,1,go,350,77,77,1,855
A3QAHF4UUBM7ZO,1,go,350,77,77,1,595
A3QAHF4UUBM7ZO,1,go,350,77,77,1,530
A3QAHF4UUBM7ZO,1,stop,350,-1,77,0,452
A3QAHF4UUBM7ZO,1,go,300,90,90,1,659
A3QAHF4UUBM7ZO,1,go,300,90,90,1,642
A3QAHF4UUBM7ZO,1,go,300,90,90,1,652
A3QAHF4UUBM7ZO,1,go,300,77,77,1,697
A3QAHF4UUBM7ZO,1,go,300,77,77,1,665
A3QAHF4UUBM7ZO,1,go,300,90,90,1,681
A3QAHF4UUBM7ZO,1,go,300,77,77,1,955
A3QAHF4UUBM7ZO,1,go,300,90,77,0,772
A3QAHF4UUBM7ZO,1,stop,300,-1,-1,1,-1
A3QAHF4UUBM7ZO,1,stop,350,-1,90,0,653
A3QAHF4UUBM7ZO,1,go,300,77,77,1,714
A3QAHF4UUBM7ZO,1,stop,300,-1,90,0,570
A3QAHF4UUBM7ZO,1,stop,250,-1,-1,1,-1
A3QAHF4UUBM7ZO,1,go,300,90,77,0,772
A3QAHF4UUBM7ZO,1,go,300,77,77,1,601
A3QAHF4UUBM7ZO,1,stop,300,-1,-1,1,-1
A3QAHF4UUBM7ZO,1,stop,350,-1,77,0,584
A3QAHF4UUBM7ZO,1,go,300,90,90,1,601
A3QAHF4UUBM7ZO,1,go,300,77,77,1,597
A3QAHF4UUBM7ZO,1,stop,300,-1,77,0,539
A3QAHF4UUBM7ZO,1,go,250,90,-1,0,-1
A3QAHF4UUBM7ZO,1,go,250,77,77,1,657
A3QAHF4UUBM7ZO,1,stop,250,-1,77,0,541
A3QAHF4UUBM7ZO,1,stop,200,-1,-1,1,-1
A3QAHF4UUBM7ZO,1,go,250,77,77,1,479
A3QAHF4UUBM7ZO,1,go,250,90,90,1,493
AIQT0DPRTXYYD,0,go,350,90,90,1,557
AIQT0DPRTXYYD,0,stop,350,-1,77,0,469
AIQT0DPRTXYYD,0,go,300,77,77,1,523
AIQT0DPRTXYYD,0,go,300,90,90,1,449
AIQT0DPRTXYYD,0,go,300,90,90,1,629
AIQT0DPRTXYYD,0,go,300,77,77,1,635
AIQT0DPRTXYYD,0,go,300,77,77,1,684
AIQT0DPRTXYYD,0,go,300,77,77,1,649
AIQT0DPRTXYYD,0,go,300,77,77,1,612
AIQT0DPRTXYYD,0,go,300,77,77,1,661
AIQT0DPRTXYYD,0,go,300,90,90,1,639
AIQT0DPRTXYYD,0,stop,300,-1,-1,1,-1
AIQT0DPRTXYYD,0,go,350,90,90,1,586
AIQT0DPRTXYYD,0,go,350,77,77,1,533
AIQT0DPRTXYYD,0,stop,350,-1,-1,1,-1
AIQT0DPRTXYYD,0,stop,400,-1,-1,1,-1
AIQT0DPRTXYYD,0,stop,450,-1,90,0,678
AIQT0DPRTXYYD,0,go,400,77,77,1,677
AIQT0DPRTXYYD,0,stop,400,-1,90,0,563
AIQT0DPRTXYYD,0,go,350,77,77,1,752
AIQT0DPRTXYYD,0,go,350,90,90,1,698
AIQT0DPRTXYYD,0,go,350,77,77,1,684
AIQT0DPRTXYYD,0,go,350,90,90,1,773
AIQT0DPRTXYYD,0,go,350,90,90,1,627
AIQT0DPRTXYYD,0,go,350,90,90,1,453
AIQT0DPRTXYYD,0,stop,350,-1,-1,1,-1
AIQT0DPRTXYYD,0,go,400,90,90,1,541
AIQT0DPRTXYYD,0,go,400,77,77,1,703
AIQT0DPRTXYYD,0,go,400,77,77,1,664
AIQT0DPRTXYYD,0,stop,400,-1,-1,1,-1
AIQT0DPRTXYYD,0,go,450,90,90,1,687
AIQT0DPRTXYYD,0,go,450,90,77,0,875
AIQT0DPRTXYYD,0,stop,450,-1,90,0,578
AIQT0DPRTXYYD,0,stop,400,-1,77,0,610
AIQT0DPRTXYYD,0,go,350,90,90,1,551
AIQT0DPRTXYYD,0,stop,350,-1,-1,1,-1
AIQT0DPRTXYYD,0,stop,400,-1,-1,1,-1
AIQT0DPRTXYYD,0,go,450,90,90,1,710
AIQT0DPRTXYYD,0,go,450,77,77,1,688
AIQT0DPRTXYYD,0,go,450,77,90,0,610
AIQT0DPRTXYYD,0,go,450,77,77,1,642
AIQT0DPRTXYYD,0,go,450,90,90,1,678
AIQT0DPRTXYYD,0,go,450,77,77,1,576
AIQT0DPRTXYYD,0,stop,450,-1,90,0,579
AIQT0DPRTXYYD,0,stop,400,-1,-1,1,-1
AIQT0DPRTXYYD,0,stop,450,-1,-1,1,-1
AIQT0DPRTXYYD,0,stop,500,-1,77,0,605
AIQT0DPRTXYYD,0,go,450,90,90,1,874
AIQT0DPRTXYYD,1,go,450,77,77,1,600
AIQT0DPRTXYYD,1,stop,450,-1,-1,1,-1
AIQT0DPRTXYYD,1,go,500,90,90,1,686
AIQT0DPRTXYYD,1,go,500,90,90,1,718
AIQT0DPRTXYYD,1,go,500,90,90,1,808
AIQT0DPRTXYYD,1,go,500,90,90,1,660
AIQT0DPRTXYYD,1,go,500,90,90,1,655
AIQT0DPRTXYYD,1,go,500,90,90,1,592
AIQT0DPRTXYYD,1,go,500,90,90,1,719
AIQT0DPRTXYYD,1,go,500,77,77,1,749
AIQT0DPRTXYYD,1,stop,500,-1,-1,1,-1
AIQT0DPRTXYYD,1,stop,550,-1,-1,1,-1
AIQT0DPRTXYYD,1,go,600,77,77,1,714
AIQT0DPRTXYYD,1,go,600,90,90,1,859
AIQT0DPRTXYYD,1,stop,600,-1,77,0,718
AIQT0DPRTXYYD,1,go,550,77,77,1,764
AIQT0DPRTXYYD,1,stop,550,-1,-1,1,-1
AIQT0DPRTXYYD,1,go,600,77,77,1,730
AIQT0DPRTXYYD,1,stop,600,-1,-1,1,-1
AIQT0DPRTXYYD,1,go,650,77,77,1,705
AIQT0DPRTXYYD,1,go,650,90,90,1,687
AIQT0DPRTXYYD,1,stop,650,-1,77,0,813
AIQT0DPRTXYYD,1,go,600,77,77,1,831
AIQT0DPRTXYYD,1,stop,600,-1,90,0,736
AIQT0DPRTXYYD,1,stop,550,-1,-1,1,-1
AIQT0DPRTXYYD,1,go,600,77,77,1,850
AIQT0DPRTXYYD,1,stop,600,-1,90,0,716
AIQT0DPRTXYYD,1,go,550,90,90,1,688
AIQT0DPRTXYYD,1,go,550,77,77,1,777
AIQT0DPRTXYYD,1,go,550,77,77,1,842
AIQT0DPRTXYYD,1,go,550,77,77,1,739
AIQT0DPRTXYYD,1,go,550,90,90,1,763
AIQT0DPRTXYYD,1,stop,550,-1,90,0,694
AIQT0DPRTXYYD,1,go,500,77,77,1,841
AIQT0DPRTXYYD,1,stop,500,-1,-1,1,-1
AIQT0DPRTXYYD,1,go,550,90,90,1,745
AIQT0DPRTXYYD,1,go,550,90,90,1,975
AIQT0DPRTXYYD,1,stop,550,-1,90,0,581
AIQT0DPRTXYYD,1,stop,500,-1,77,0,699
AIQT0DPRTXYYD,1,stop,450,-1,-1,1,-1
AIQT0DPRTXYYD,1,go,500,77,77,1,680
AIQT0DPRTXYYD,1,go,500,90,90,1,734
AIQT0DPRTXYYD,1,go,500,77,77,1,757
AIQT0DPRTXYYD,1,go,500,90,90,1,827
AIQT0DPRTXYYD,1,go,500,77,77,1,729
AIQT0DPRTXYYD,1,stop,500,-1,90,0,676
AIQT0DPRTXYYD,1,go,450,77,77,1,815
AIQT0DPRTXYYD,1,go,450,90,90,1,891
A3V1ZYXBJYCIIE,0,go,500,90,90,1,695
A3V1ZYXBJYCIIE,0,go,500,90,90,1,604
A3V1ZYXBJYCIIE,0,go,500,77,77,1,613
A3V1ZYXBJYCIIE,0,stop,500,-1,77,0,620
A3V1ZYXBJYCIIE,0,go,450,90,90,1,604
A3V1ZYXBJYCIIE,0,go,450,77,77,1,636
A3V1ZYXBJYCIIE,0,stop,450,-1,90,0,643
A3V1ZYXBJYCIIE,0,stop,400,-1,-1,1,-1
A3V1ZYXBJYCIIE,0,stop,450,-1,77,0,591
A3V1ZYXBJYCIIE,0,go,400,90,90,1,471
A3V1ZYXBJYCIIE,0,stop,400,-1,77,0,601
A3V1ZYXBJYCIIE,0,go,350,90,90,1,640
A3V1ZYXBJYCIIE,0,go,350,90,90,1,677
A3V1ZYXBJYCIIE,0,go,350,77,77,1,685
A3V1ZYXBJYCIIE,0,go,350,77,77,1,692
A3V1ZYXBJYCIIE,0,go,350,90,90,1,731
A3V1ZYXBJYCIIE,0,go,350,77,90,0,711
A3V1ZYXBJYCIIE,0,go,350,77,77,1,685
A3V1ZYXBJYCIIE,0,go,350,77,77,1,756
A3V1ZYXBJYCIIE,0,stop,350,-1,-1,1,-1
A3V1ZYXBJYCIIE,0,go,400,90,90,1,644
A3V1ZYXBJYCIIE,0,stop,400,-1,77,0,1164
A3V1ZYXBJYCIIE,0,go,350,90,90,1,691
A3V1ZYXBJYCIIE,0,go,350,77,77,1,856
A3V1ZYXBJYCIIE,0,go,350,77,77,1,1055
A3V1ZYXBJYCIIE,0,go,350,90,90,1,1094
A3V1ZYXBJYCIIE,0,stop,350,-1,-1,1,-1
A3V1ZYXBJYCIIE,0,stop,400,-1,-1,1,-1
A3V1ZYXBJYCIIE,0,go,450,90,90,1,646
A3V1ZYXBJYCIIE,0,go,450,90,90,1,750
A3V1ZYXBJYCIIE,0,stop,450,-1,90,0,564
A3V1ZYXBJYCIIE,0,go,400,90,90,1,667
A3V1ZYXBJYCIIE,0,stop,400,-1,-1,1,-1
A3V1ZYXBJYCIIE,0,go,450,90,90,1,618
A3V1ZYXBJYCIIE,0,stop,450,-1,90,0,593
A3V1ZYXBJYCIIE,0,go,400,77,77,1,758
A3V1ZYXBJYCIIE,0,go,400,90,90,1,859
A3V1ZYXBJYCIIE,0,go,400,90,90,1,746
A3V1ZYXBJYCIIE,0,stop,400,-1,-1,1,-1
A3V1ZYXBJYCIIE,0,stop,450,-1,-1,1,-1
A3V1ZYXBJYCIIE,0,stop,500,-1,77,0,545
A3V1ZYXBJYCIIE,0,go,450,77,77,1,679
A3V1ZYXBJYCIIE,0,go,450,77,77,1,559
A3V1ZYXBJYCIIE,0,go,450,77,77,1,694
A3V1ZYXBJYCIIE,0,stop,450,-1,-1,1,-1
A3V1ZYXBJYCIIE,0,go,500,77,77,1,708
A3V1ZYXBJYCIIE,0,go,500,77,77,1,712
A3V1ZYXBJYCIIE,0,go,500,77,77,1,751
A3V1ZYXBJYCIIE,1,stop,500,-1,90,0,662
A3V1ZYXBJYCIIE,1,go,450,90,90,1,575
A3V1ZYXBJYCIIE,1,stop,450,-1,-1,1,-1
A3V1ZYXBJYCIIE,1,go,500,77,77,1,846
A3V1ZYXBJYCIIE,1,go,500,90,90,1,757
A3V1ZYXBJYCIIE,1,go,500,77,77,1,732
A3V1ZYXBJYCIIE,1,go,500,77,77,1,708
A3V1ZYXBJYCIIE,1,go,500,77,77,1,715
A3V1ZYXBJYCIIE,1,go,500,90,90,1,660
A3V1ZYXBJYCIIE,1,go,500,77,77,1,699
A3V1ZYXBJYCIIE,1,go,500,77,77,1,866
A3V1ZYXBJYCIIE,1,stop,500,-1,-1,1,-1
A3V1ZYXBJYCIIE,1,go,550,90,90,1,600
A3V1ZYXBJYCIIE,1,stop,550,-1,90,0,704
A3V1ZYXBJYCIIE,1,go,500,90,90,1,676
A3V1ZYXBJYCIIE,1,go,500,77,77,1,653
A3V1ZYXBJYCIIE,1,stop,500,-1,77,0,596
A3V1ZYXBJYCIIE,1,go,450,90,90,1,604
A3V1ZYXBJYCIIE,1,go,450,90,90,1,612
A3V1ZYXBJYCIIE,1,stop,450,-1,90,0,523
A3V1ZYXBJYCIIE,1,go,400,90,90,1,594
A3V1ZYXBJYCIIE,1,stop,400,-1,77,0,826
A3V1ZYXBJYCIIE,1,stop,350,-1,-1,1,-1
A3V1ZYXBJYCIIE,1,go,400,90,90,1,681
A3V1ZYXBJYCIIE,1,go,400,77,77,1,656
A3V1ZYXBJYCIIE,1,go,400,77,77,1,696
A3V1ZYXBJYCIIE,1,stop,400,-1,77,0,1152
A3V1ZYXBJYCIIE,1,stop,350,-1,-1,1,-1
A3V1ZYXBJYCIIE,1,stop,400,-1,-1,1,-1
A3V1ZYXBJYCIIE,1,go,450,90,90,1,696
A3V1ZYXBJYCIIE,1,go,450,90,90,1,637
A3V1ZYXBJYCIIE,1,stop,450,-1,90,0,454
A3V1ZYXBJYCIIE,1,go,400,77,77,1,781
A3V1ZYXBJYCIIE,1,stop,400,-1,-1,1,-1
A3V1ZYXBJYCIIE,1,go,450,90,90,1,695
A3V1ZYXBJYCIIE,1,stop,450,-1,-1,1,-1
A3V1ZYXBJYCIIE,1,go,500,90,90,1,709
A3V1ZYXBJYCIIE,1,go,500,77,77,1,1068
A3V1ZYXBJYCIIE,1,go,500,77,77,1,1043
A3V1ZYXBJYCIIE,1,stop,500,-1,-1,1,-1
A3V1ZYXBJYCIIE,1,go,550,77,77,1,777
A3V1ZYXBJYCIIE,1,go,550,90,90,1,999
A3V1ZYXBJYCIIE,1,go,550,90,90,1,694
A3V1ZYXBJYCIIE,1,go,550,77,77,1,669
A3V1ZYXBJYCIIE,1,stop,550,-1,90,0,674
A3V1ZYXBJYCIIE,1,go,500,77,77,1,554
A3V1ZYXBJYCIIE,1,go,500,77,77,1,338
A3V1ZYXBJYCIIE,1,go,500,90,90,1,504
A2WYCY1FMQOD5F,0,go,250,90,90,1,563
A2WYCY1FMQOD5F,0,go,250,77,77,1,705
A2WYCY1FMQOD5F,0,stop,250,-1,-1,1,-1
A2WYCY1FMQOD5F,0,go,300,90,90,1,565
A2WYCY1FMQOD5F,0,stop,300,-1,90,0,681
A2WYCY1FMQOD5F,0,stop,250,-1,90,0,454
A2WYCY1FMQOD5F,0,go,200,77,77,1,707
A2WYCY1FMQOD5F,0,go,200,90,90,1,714
A2WYCY1FMQOD5F,0,stop,200,-1,-1,1,-1
A2WYCY1FMQOD5F,0,stop,250,-1,-1,1,-1
A2WYCY1FMQOD5F,0,go,300,90,90,1,661
A2WYCY1FMQOD5F,0,go,300,77,77,1,770
A2WYCY1FMQOD5F,0,stop,300,-1,-1,1,-1
A2WYCY1FMQOD5F,0,stop,350,-1,-1,1,-1
A2WYCY1FMQOD5F,0,stop,400,-1,-1,1,-1
A2WYCY1FMQOD5F,0,go,450,77,77,1,623
A2WYCY1FMQOD5F,0,go,450,77,77,1,857
A2WYCY1FMQOD5F,0,stop,450,-1,-1,1,-1
A2WYCY1FMQOD5F,0,go,500,90,90,1,766
A2WYCY1FMQOD5F,0,go,500,90,90,1,764
A2WYCY1FMQOD5F,0,go,500,90,90,1,599
A2WYCY1FMQOD5F,0,stop,500,-1,77,0,726
A2WYCY1FMQOD5F,0,stop,450,-1,-1,1,-1
A2WYCY1FMQOD5F,0,go,500,90,90,1,783
A2WYCY1FMQOD5F,0,go,500,90,90,1,970
A2WYCY1FMQOD5F,0,go,500,90,90,1,862
A2WYCY1FMQOD5F,0,go,500,77,77,1,644
A2WYCY1FMQOD5F,0,go,500,77,77,1,610
A2WYCY1FMQOD5F,0,stop,500,-1,-1,1,-1
A2WYCY1FMQOD5F,0,go,550,90,90,1,596
A2WYCY1FMQOD5F,0,go,550,77,77,1,839
A2WYCY1FMQOD5F,0,go,550,90,90,1,676
A2WYCY1FMQOD5F,0,go,550,90,90,1,676
A2WYCY1FMQOD5F,0,go,550,77,77,1,758
A2WYCY1FMQOD5F,0,go,550,77,77,1,790
A2WYCY1FMQOD5F,0,go,550,90,90,1,819
A2WYCY1FMQOD5F,0,stop,550,-1,77,0,677
A2WYCY1FMQOD5F,0,go,500,90,90,1,634
A2WYCY1FMQOD5F,0,go,500,77,77,1,698
A2WYCY1FMQOD5F,0,stop,500,-1,90,0,697
A2WYCY1FMQOD5F,0,go,450,77,77,1,810
A2WYCY1FMQOD5F,0,go,450,77,77,1,1181
A2WYCY1FMQOD5F,0,go,450,77,77,1,640
A2WYCY1FMQOD5F,0,go,450,77,77,1,722
A2WYCY1FMQOD5F,0,stop,450,-1,90,0,723
A2WYCY1FMQOD5F,0,go,400,77,77,1,815
A2WYCY1FMQOD5F,0,stop,400,-1,-1,1,-1
A2WYCY1FMQOD5F,0,go,450,90,90,1,778
A2WYCY1FMQOD5F,1,go,450,90,90,1,650
A2WYCY1FMQOD5F,1,go,450,90,90,1,544
A2WYCY1FMQOD5F,1,stop,450,-1,-1,1,-1
A2WYCY1FMQOD5F,1,go,500,77,77,1,761
A2WYCY1FMQOD5F,1,stop,500,-1,-1,1,-1
A2WYCY1FMQOD5F,1,go,550,77,77,1,771
A2WYCY1FMQOD5F,1,go,550,77,77,1,742
A2WYCY1FMQOD5F,1,go,550,90,90,1,539
A2WYCY1FMQOD5F,1,stop,550,-1,90,0,643
A2WYCY1FMQOD5F,1,go,500,90,90,1,688
A2WYCY1FMQOD5F,1,go,500,90,90,1,767
A2WYCY1FMQOD5F,1,stop,500,-1,90,0,813
A2WYCY1FMQOD5F,1,go,450,90,90,1,744
A2WYCY1FMQOD5F,1,go,450,90,90,1,848
A2WYCY1FMQOD5F,1,go,450,90,90,1,919
A2WYCY1FMQOD5F,1,stop,450,-1,-1,1,-1
A2WYCY1FMQOD5F,1,go,500,90,90,1,730
A2WYCY1FMQOD5F,1,go,500,90,90,1,848
A2WYCY1FMQOD5F,1,go,500,77,77,1,873
A2WYCY1FMQOD5F,1,stop,500,-1,-1,1,-1
A2WYCY1FMQOD5F,1,go,550,90,90,1,827
A2WYCY1FMQOD5F,1,go,550,90,90,1,942
A2WYCY1FMQOD5F,1,stop,550,-1,-1,1,-1
A2WYCY1FMQOD5F,1,go,600,77,77,1,753
A2WYCY1FMQOD5F,1,go,600,77,77,1,909
A2WYCY1FMQOD5F,1,go,600,77,77,1,901
A2WYCY1FMQOD5F,1,go,600,77,77,1,749
A2WYCY1FMQOD5F,1,go,600,90,90,1,885
A2WYCY1FMQOD5F,1,stop,600,-1,90,0,763
A2WYCY1FMQOD5F,1,go,550,90,90,1,789
A2WYCY1FMQOD5F,1,go,550,77,77,1,865
A2WYCY1FMQOD5F,1,go,550,77,77,1,631
A2WYCY1FMQOD5F,1,go,550,77,77,1,779
A2WYCY1FMQOD5F,1,stop,550,-1,90,0,777
A2WYCY1FMQOD5F,1,go,500,90,90,1,801
A2WYCY1FMQOD5F,1,go,500,77,77,1,797
A2WYCY1FMQOD5F,1,go,500,77,77,1,755
A2WYCY1FMQOD5F,1,stop,500,-1,-1,1,-1
A2WYCY1FMQOD5F,1,go,550,90,90,1,646
A2WYCY1FMQOD5F,1,stop,550,-1,90,0,719
A2WYCY1FMQOD5F,1,stop,500,-1,-1,1,-1
A2WYCY1FMQOD5F,1,go,550,77,77,1,756
A2WYCY1FMQOD5F,1,go,550,77,77,1,907
A2WYCY1FMQOD5F,1,stop,550,-1,-1,1,-1
A2WYCY1FMQOD5F,1,stop,600,-1,77,0,713
A2WYCY1FMQOD5F,1,go,550,77,77,1,791
A2WYCY1FMQOD5F,1,stop,550,-1,-1,1,-1
A2WYCY1FMQOD5F,1,stop,600,-1,77,0,858
A2S4YDJ9UGAXFQ,0,stop,400,-1,77,0,599
A2S4YDJ9UGAXFQ,0,go,350,90,90,1,376
A2S4YDJ9UGAXFQ,0,go,350,77,77,1,533
A2S4YDJ9UGAXFQ,0,stop,350,-1,77,0,436
A2S4YDJ9UGAXFQ,0,stop,300,-1,77,0,435
A2S4YDJ9UGAXFQ,0,stop,250,-1,-1,1,-1
A2S4YDJ9UGAXFQ,0,go,300,90,90,1,369
A2S4YDJ9UGAXFQ,0,go,300,90,90,1,378
A2S4YDJ9UGAXFQ,0,go,300,90,90,1,437
A2S4YDJ9UGAXFQ,0,go,300,77,77,1,467
A2S4YDJ9UGAXFQ,0,stop,300,-1,77,0,429
A2S4YDJ9UGAXFQ,0,stop,250,-1,-1,1,-1
A2S4YDJ9UGAXFQ,0,go,300,90,90,1,530
A2S4YDJ9UGAXFQ,0,stop,300,-1,-1,1,-1
A2S4YDJ9UGAXFQ,0,go,350,77,77,1,611
A2S4YDJ9UGAXFQ,0,go,350,77,77,1,551
A2S4YDJ9UGAXFQ,0,go,350,77,77,1,573
A2S4YDJ9UGAXFQ,0,go,350,77,77,1,561
A2S4YDJ9UGAXFQ,0,go,350,77,77,1,433
A2S4YDJ9UGAXFQ,0,go,350,77,77,1,468
A2S4YDJ9UGAXFQ,0,go,350,77,77,1,391
A2S4YDJ9UGAXFQ,0,stop,350,-1,90,0,430
A2S4YDJ9UGAXFQ,0,go,300,90,90,1,495
A2S4YDJ9UGAXFQ,0,stop,300,-1,90,0,431
A2S4YDJ9UGAXFQ,0,go,250,77,77,1,439
A2S4YDJ9UGAXFQ,0,go,250,77,77,1,423
A2S4YDJ9UGAXFQ,0,stop,250,-1,77,0,343
A2S4YDJ9UGAXFQ,0,go,200,90,90,1,406
A2S4YDJ9UGAXFQ,0,go,200,77,77,1,445
A2S4YDJ9UGAXFQ,0,go,200,77,90,0,773
A2S4YDJ9UGAXFQ,0,go,200,90,90,1,524
A2S4YDJ9UGAXFQ,0,stop,200,-1,-1,1,-1
A2S4YDJ9UGAXFQ,0,go,250,77,77,1,370
A2S4YDJ9UGAXFQ,0,go,250,90,90,1,447
A2S4YDJ9UGAXFQ,0,go,250,77,77,1,519
A2S4YDJ9UGAXFQ,0,stop,250,-1,-1,1,-1
A2S4YDJ9UGAXFQ,0,stop,300,-1,-1,1,-1
A2S4YDJ9UGAXFQ,0,go,350,90,90,1,568
A2S4YDJ9UGAXFQ,0,go,350,90,90,1,556
A2S4YDJ9UGAXFQ,0,go,350,90,90,1,473
A2S4YDJ9UGAXFQ,0,go,350,90,90,1,454
A2S4YDJ9UGAXFQ,0,stop,350,-1,77,0,411
A2S4YDJ9UGAXFQ,0,go,300,77,77,1,463
A2S4YDJ9UGAXFQ,0,stop,300,-1,77,0,445
A2S4YDJ9UGAXFQ,0,stop,250,-1,90,0,453
A2S4YDJ9UGAXFQ,0,go,200,90,90,1,567
A2S4YDJ9UGAXFQ,0,go,200,90,90,1,591
A2S4YDJ9UGAXFQ,0,go,200,90,90,1,507
A2S4YDJ9UGAXFQ,1,stop,200,-1,90,0,660
A2S4YDJ9UGAXFQ,1,stop,150,-1,-1,1,-1
A2S4YDJ9UGAXFQ,1,go,200,77,77,1,311
A2S4YDJ9UGAXFQ,1,go,200,77,77,1,430
A2S4YDJ9UGAXFQ,1,stop,200,-1,-1,1,-1
A2S4YDJ9UGAXFQ,1,stop,250,-1,-1,1,-1
A2S4YDJ9UGAXFQ,1,go,300,77,77,1,581
A2S4YDJ9UGAXFQ,1,stop,300,-1,-1,1,-1
A2S4YDJ9UGAXFQ,1,go,350,90,90,1,558
A2S4YDJ9UGAXFQ,1,go,350,77,77,1,461
A2S4YDJ9UGAXFQ,1,stop,350,-1,90,0,468
A2S4YDJ9UGAXFQ,1,stop,300,-1,77,0,434
A2S4YDJ9UGAXFQ,1,go,250,77,77,1,530
A2S4YDJ9UGAXFQ,1,go,250,90,90,1,641
A2S4YDJ9UGAXFQ,1,stop,250,-1,77,0,401
A2S4YDJ9UGAXFQ,1,stop,200,-1,-1,1,-1
A2S4YDJ9UGAXFQ,1,stop,250,-1,-1,1,-1
A2S4YDJ9UGAXFQ,1,go,300,90,90,1,472
A2S4YDJ9UGAXFQ,1,go,300,77,77,1,493
A2S4YDJ9UGAXFQ,1,go,300,90,90,1,551
A2S4YDJ9UGAXFQ,1,go,300,77,77,1,558
A2S4YDJ9UGAXFQ,1,go,300,90,90,1,512
A2S4YDJ9UGAXFQ,1,go,300,77,77,1,476
A2S4YDJ9UGAXFQ,1,go,300,77,77,1,514
A2S4YDJ9UGAXFQ,1,go,300,90,90,1,439
A2S4YDJ9UGAXFQ,1,go,300,90,90,1,456
A2S4YDJ9UGAXFQ,1,stop,300,-1,77,0,428
A2S4YDJ9UGAXFQ,1,go,250,90,90,1,501
A2S4YDJ9UGAXFQ,1,go,250,90,90,1,457
A2S4YDJ9UGAXFQ,1,go,250,77,77,1,401
A2S4YDJ9UGAXFQ,1,go,250,77,77,1,459
A2S4YDJ9UGAXFQ,1,go,250,90,90,1,457
A2S4YDJ9UGAXFQ,1,stop,250,-1,-1,1,-1
A2S4YDJ9UGAXFQ,1,go,300,77,77,1,458
A2S4YDJ9UGAXFQ,1,go,300,90,90,1,315
A2S4YDJ9UGAXFQ,1,go,300,77,77,1,457
A2S4YDJ9UGAXFQ,1,stop,300,-1,90,0,456
A2S4YDJ9UGAXFQ,1,go,250,77,77,1,391
A2S4YDJ9UGAXFQ,1,go,250,90,90,1,492
A2S4YDJ9UGAXFQ,1,stop,250,-1,-1,1,-1
A2S4YDJ9UGAXFQ,1,go,300,90,90,1,473
A2S4YDJ9UGAXFQ,1,go,300,77,77,1,545
A2S4YDJ9UGAXFQ,1,go,300,90,90,1,472
A2S4YDJ9UGAXFQ,1,go,300,90,90,1,471
A2S4YDJ9UGAXFQ,1,go,300,90,90,1,532
A2S4YDJ9UGAXFQ,1,go,300,77,77,1,469
A2S4YDJ9UGAXFQ,1,stop,300,-1,-1,1,-1
A2S4YDJ9UGAXFQ,1,stop,350,-1,90,0,382
A2S4YDJ9UGAXFQ,2,go,300,77,77,1,832